;PC Software:StarLab Version 2.10 Build 25
;Logged:22/09/2022 at 15:06:28
;File Version:3
;Graph Type:Line
;Notes:                                                            

;Channel A:Nova II Photodiode PD300-3W-v1 (s/n:763106)  NN2.52 (s/n:767396)
;Channel B:Vega Thermopile 10A-V1.1 (s/n:693380)  VG2.44 (s/n:858327)

;Channel A:Details
;Name:PD300-3W-v1
;Graph Color:RGB(0,102,255)
;Units:W
;Settings:Measuring:Power
;Settings:Wavelength:1064
;Settings:Range:AUTO
;Settings:Filter:IN

;Channel B:Details
;Name:10A-V1.1
;Graph Color:RGB(154,0,0)
;Units:W
;Settings:Measuring:Power
;Settings:Laser:.8-6
;Settings:Range:AUTO
;--------------------


;First Pulse Arrived : 22/09/2022 at 15:06:28.360000
  Timestamp   	  Channel A  	  Channel B  	
         0.000	  3.710e-003 	             	
         0.024	             	  4.740e-001 	
         0.064	  3.710e-003 	             	
         0.088	             	  4.740e-001 	
         0.128	  3.720e-003 	             	
         0.152	             	  4.740e-001 	
         0.192	  3.710e-003 	             	
         0.216	             	  4.730e-001 	
         0.256	  3.710e-003 	             	
         0.280	             	  4.730e-001 	
         0.320	  3.730e-003 	             	
         0.344	             	  4.730e-001 	
         0.384	  3.700e-003 	             	
         0.440	             	  4.730e-001 	
         0.448	  3.740e-003 	             	
         0.504	             	  4.740e-001 	
         0.544	  3.730e-003 	             	
         0.568	             	  4.740e-001 	
         0.608	  3.730e-003 	             	
         0.632	             	  4.740e-001 	
         0.672	  3.720e-003 	             	
         0.696	             	  4.740e-001 	
         0.736	  3.710e-003 	             	
         0.760	             	  4.740e-001 	
         0.800	  3.700e-003 	             	
         0.824	             	  4.740e-001 	
         0.864	  3.730e-003 	             	
         0.888	             	  4.740e-001 	
         0.928	  3.730e-003 	             	
         0.952	             	  4.740e-001 	
         0.992	  3.710e-003 	             	
         1.016	             	  4.740e-001 	
         1.056	  3.720e-003 	             	
         1.080	             	  4.740e-001 	
         1.120	  3.720e-003 	             	
         1.144	             	  4.740e-001 	
         1.184	  3.710e-003 	             	
         1.240	             	  4.730e-001 	
         1.248	  3.710e-003 	             	
         1.304	             	  4.730e-001 	
         1.344	  3.720e-003 	             	
         1.368	             	  4.730e-001 	
         1.408	  3.740e-003 	             	
         1.432	             	  4.730e-001 	
         1.472	  3.730e-003 	             	
         1.496	             	  4.730e-001 	
         1.536	  3.710e-003 	             	
         1.560	             	  4.730e-001 	
         1.600	  3.720e-003 	             	
         1.624	             	  4.740e-001 	
         1.664	  3.700e-003 	             	
         1.688	             	  4.740e-001 	
         1.728	  3.740e-003 	             	
         1.752	             	  4.740e-001 	
         1.792	  3.720e-003 	             	
         1.816	             	  4.740e-001 	
         1.856	  3.720e-003 	             	
         1.880	             	  4.740e-001 	
         1.920	  3.730e-003 	             	
         1.944	             	  4.740e-001 	
         1.984	  3.740e-003 	             	
         2.040	             	  4.740e-001 	
         2.048	  3.740e-003 	             	
         2.104	             	  4.740e-001 	
         2.144	  3.700e-003 	             	
         2.168	             	  4.740e-001 	
         2.208	  3.750e-003 	             	
         2.232	             	  4.740e-001 	
         2.272	  3.760e-003 	             	
         2.296	             	  4.740e-001 	
         2.336	  3.720e-003 	             	
         2.360	             	  4.740e-001 	
         2.400	  3.740e-003 	             	
         2.424	             	  4.740e-001 	
         2.464	  3.730e-003 	             	
         2.488	             	  4.740e-001 	
         2.528	  3.750e-003 	             	
         2.552	             	  4.740e-001 	
         2.592	  3.740e-003 	             	
         2.616	             	  4.740e-001 	
         2.656	  3.760e-003 	             	
         2.680	             	  4.740e-001 	
         2.720	  3.840e-003 	             	
         2.744	             	  4.740e-001 	
         2.784	  3.860e-003 	             	
         2.840	             	  4.730e-001 	
         2.848	  3.850e-003 	             	
         2.904	             	  4.730e-001 	
         2.944	  3.860e-003 	             	
         2.968	             	  4.730e-001 	
         3.008	  3.860e-003 	             	
         3.032	             	  4.730e-001 	
         3.072	  3.830e-003 	             	
         3.096	             	  4.730e-001 	
         3.136	  3.830e-003 	             	
         3.160	             	  4.730e-001 	
         3.200	  3.820e-003 	             	
         3.224	             	  4.730e-001 	
         3.264	  3.810e-003 	             	
         3.288	             	  4.730e-001 	
         3.328	  3.780e-003 	             	
         3.352	             	  4.740e-001 	
         3.392	  3.780e-003 	             	
         3.416	             	  4.740e-001 	
         3.456	  3.760e-003 	             	
         3.480	             	  4.740e-001 	
         3.520	  3.770e-003 	             	
         3.544	             	  4.740e-001 	
         3.584	  3.770e-003 	             	
         3.640	             	  4.740e-001 	
         3.647	  3.750e-003 	             	
         3.704	             	  4.740e-001 	
         3.744	  3.730e-003 	             	
         3.768	             	  4.740e-001 	
         3.808	  3.730e-003 	             	
         3.832	             	  4.740e-001 	
         3.872	  3.750e-003 	             	
         3.896	             	  4.740e-001 	
         3.935	  3.740e-003 	             	
         3.960	             	  4.740e-001 	
         4.000	  3.760e-003 	             	
         4.024	             	  4.740e-001 	
         4.063	  3.780e-003 	             	
         4.088	             	  4.730e-001 	
         4.127	  3.780e-003 	             	
         4.152	             	  4.730e-001 	
         4.192	  3.760e-003 	             	
         4.216	             	  4.730e-001 	
         4.255	  3.780e-003 	             	
         4.280	             	  4.740e-001 	
         4.320	  3.780e-003 	             	
         4.344	             	  4.740e-001 	
         4.383	  3.810e-003 	             	
         4.440	             	  4.740e-001 	
         4.447	  3.810e-003 	             	
         4.504	             	  4.740e-001 	
         4.543	  3.800e-003 	             	
         4.568	             	  4.740e-001 	
         4.608	  3.820e-003 	             	
         4.632	             	  4.740e-001 	
         4.671	  3.790e-003 	             	
         4.696	             	  4.740e-001 	
         4.735	  3.800e-003 	             	
         4.760	             	  4.740e-001 	
         4.799	  3.810e-003 	             	
         4.824	             	  4.740e-001 	
         4.863	  3.800e-003 	             	
         4.888	             	  4.740e-001 	
         4.927	  3.790e-003 	             	
         4.952	             	  4.740e-001 	
         4.991	  3.780e-003 	             	
         5.016	             	  4.740e-001 	
         5.055	  3.760e-003 	             	
         5.080	             	  4.740e-001 	
         5.119	  3.750e-003 	             	
         5.144	             	  4.740e-001 	
         5.183	  3.770e-003 	             	
         5.240	             	  4.740e-001 	
         5.247	  3.780e-003 	             	
         5.304	             	  4.740e-001 	
         5.343	  3.780e-003 	             	
         5.368	             	  4.740e-001 	
         5.407	  3.780e-003 	             	
         5.432	             	  4.740e-001 	
         5.471	  3.770e-003 	             	
         5.496	             	  4.740e-001 	
         5.535	  3.800e-003 	             	
         5.560	             	  4.740e-001 	
         5.599	  3.750e-003 	             	
         5.624	             	  4.740e-001 	
         5.663	  3.750e-003 	             	
         5.688	             	  4.740e-001 	
         5.727	  3.760e-003 	             	
         5.752	             	  4.740e-001 	
         5.791	  3.770e-003 	             	
         5.816	             	  4.740e-001 	
         5.855	  3.730e-003 	             	
         5.880	             	  4.740e-001 	
         5.919	  3.760e-003 	             	
         5.944	             	  4.740e-001 	
         5.983	  3.750e-003 	             	
         6.040	             	  4.740e-001 	
         6.048	  3.750e-003 	             	
         6.104	             	  4.740e-001 	
         6.143	  3.760e-003 	             	
         6.168	             	  4.740e-001 	
         6.207	  3.750e-003 	             	
         6.232	             	  4.740e-001 	
         6.271	  3.770e-003 	             	
         6.296	             	  4.740e-001 	
         6.335	  3.740e-003 	             	
         6.360	             	  4.740e-001 	
         6.399	  3.750e-003 	             	
         6.424	             	  4.740e-001 	
         6.463	  3.730e-003 	             	
         6.488	             	  4.740e-001 	
         6.527	  3.760e-003 	             	
         6.552	             	  4.730e-001 	
         6.591	  3.760e-003 	             	
         6.616	             	  4.740e-001 	
         6.655	  3.750e-003 	             	
         6.680	             	  4.730e-001 	
         6.719	  3.780e-003 	             	
         6.744	             	  4.730e-001 	
         6.783	  3.800e-003 	             	
         6.840	             	  4.730e-001 	
         6.847	  3.810e-003 	             	
         6.904	             	  4.730e-001 	
         6.943	  3.810e-003 	             	
         6.968	             	  4.740e-001 	
         7.007	  3.830e-003 	             	
         7.032	             	  4.740e-001 	
         7.071	  3.820e-003 	             	
         7.096	             	  4.730e-001 	
         7.135	  3.820e-003 	             	
         7.160	             	  4.740e-001 	
         7.199	  3.820e-003 	             	
         7.224	             	  4.740e-001 	
         7.263	  3.830e-003 	             	
         7.288	             	  4.740e-001 	
         7.327	  3.820e-003 	             	
         7.352	             	  4.740e-001 	
         7.391	  3.810e-003 	             	
         7.416	             	  4.740e-001 	
         7.455	  3.830e-003 	             	
         7.480	             	  4.730e-001 	
         7.519	  3.820e-003 	             	
         7.544	             	  4.740e-001 	
         7.583	  3.800e-003 	             	
         7.640	             	  4.740e-001 	
         7.647	  3.810e-003 	             	
         7.704	             	  4.740e-001 	
         7.743	  3.830e-003 	             	
         7.768	             	  4.740e-001 	
         7.807	  3.830e-003 	             	
         7.832	             	  4.730e-001 	
         7.871	  3.820e-003 	             	
         7.896	             	  4.730e-001 	
         7.935	  3.820e-003 	             	
         7.960	             	  4.730e-001 	
         7.999	  3.790e-003 	             	
         8.024	             	  4.730e-001 	
         8.063	  3.810e-003 	             	
         8.088	             	  4.730e-001 	
         8.127	  3.790e-003 	             	
         8.152	             	  4.730e-001 	
         8.191	  3.760e-003 	             	
         8.216	             	  4.730e-001 	
         8.255	  3.790e-003 	             	
         8.280	             	  4.730e-001 	
         8.319	  3.760e-003 	             	
         8.345	             	  4.730e-001 	
         8.384	  3.790e-003 	             	
         8.409	             	  4.730e-001 	
         8.448	  3.800e-003 	             	
         8.505	             	  4.730e-001 	
         8.544	  3.790e-003 	             	
         8.569	             	  4.730e-001 	
         8.608	  3.790e-003 	             	
         8.633	             	  4.730e-001 	
         8.672	  3.800e-003 	             	
         8.697	             	  4.730e-001 	
         8.736	  3.810e-003 	             	
         8.761	             	  4.730e-001 	
         8.800	  3.820e-003 	             	
         8.825	             	  4.730e-001 	
         8.864	  3.830e-003 	             	
         8.889	             	  4.730e-001 	
         8.928	  3.810e-003 	             	
         8.953	             	  4.730e-001 	
         8.992	  3.800e-003 	             	
         9.017	             	  4.730e-001 	
         9.056	  3.820e-003 	             	
         9.081	             	  4.730e-001 	
         9.120	  3.830e-003 	             	
         9.145	             	  4.730e-001 	
         9.184	  3.860e-003 	             	
         9.209	             	  4.730e-001 	
         9.248	  3.800e-003 	             	
         9.305	             	  4.730e-001 	
         9.344	  3.800e-003 	             	
         9.369	             	  4.740e-001 	
         9.408	  3.810e-003 	             	
         9.433	             	  4.740e-001 	
         9.472	  3.780e-003 	             	
         9.497	             	  4.740e-001 	
         9.536	  3.770e-003 	             	
         9.561	             	  4.740e-001 	
         9.600	  3.780e-003 	             	
         9.625	             	  4.740e-001 	
         9.664	  3.710e-003 	             	
         9.689	             	  4.740e-001 	
         9.728	  3.770e-003 	             	
         9.753	             	  4.740e-001 	
         9.792	  3.750e-003 	             	
         9.817	             	  4.740e-001 	
         9.856	  3.760e-003 	             	
         9.881	             	  4.730e-001 	
         9.920	  3.770e-003 	             	
         9.945	             	  4.730e-001 	
         9.984	  3.780e-003 	             	
        10.009	             	  4.730e-001 	
        10.048	  3.740e-003 	             	
        10.105	             	  4.730e-001 	
        10.144	  3.750e-003 	             	
        10.169	             	  4.740e-001 	
        10.208	  3.740e-003 	             	
        10.233	             	  4.740e-001 	
        10.272	  3.780e-003 	             	
        10.297	             	  4.740e-001 	
        10.336	  3.740e-003 	             	
        10.361	             	  4.730e-001 	
        10.400	  3.760e-003 	             	
        10.425	             	  4.730e-001 	
        10.464	  3.700e-003 	             	
        10.489	             	  4.730e-001 	
        10.528	  3.750e-003 	             	
        10.553	             	  4.730e-001 	
        10.592	  3.700e-003 	             	
        10.617	             	  4.730e-001 	
        10.656	  3.700e-003 	             	
        10.681	             	  4.730e-001 	
        10.720	  3.720e-003 	             	
        10.745	             	  4.730e-001 	
        10.784	  3.710e-003 	             	
        10.809	             	  4.730e-001 	
        10.848	  3.720e-003 	             	
        10.905	             	  4.730e-001 	
        10.944	  3.720e-003 	             	
        10.969	             	  4.730e-001 	
        11.008	  3.720e-003 	             	
        11.033	             	  4.740e-001 	
        11.072	  3.740e-003 	             	
        11.097	             	  4.730e-001 	
        11.136	  3.750e-003 	             	
        11.161	             	  4.730e-001 	
        11.200	  3.720e-003 	             	
        11.225	             	  4.740e-001 	
        11.264	  3.700e-003 	             	
        11.289	             	  4.740e-001 	
        11.328	  3.710e-003 	             	
        11.353	             	  4.740e-001 	
        11.392	  3.720e-003 	             	
        11.417	             	  4.740e-001 	
        11.456	  3.700e-003 	             	
        11.481	             	  4.730e-001 	
        11.520	  3.690e-003 	             	
        11.545	             	  4.730e-001 	
        11.584	  3.700e-003 	             	
        11.609	             	  4.730e-001 	
        11.648	  3.750e-003 	             	
        11.705	             	  4.730e-001 	
        11.712	  3.740e-003 	             	
        11.769	             	  4.730e-001 	
        11.808	  3.770e-003 	             	
        11.833	             	  4.730e-001 	
        11.872	  3.730e-003 	             	
        11.897	             	  4.730e-001 	
        11.936	  3.740e-003 	             	
        11.961	             	  4.730e-001 	
        12.000	  3.730e-003 	             	
        12.025	             	  4.730e-001 	
        12.064	  3.770e-003 	             	
        12.089	             	  4.730e-001 	
        12.128	  3.770e-003 	             	
        12.153	             	  4.730e-001 	
        12.192	  3.780e-003 	             	
        12.217	             	  4.730e-001 	
        12.256	  3.770e-003 	             	
        12.281	             	  4.730e-001 	
        12.320	  3.780e-003 	             	
        12.345	             	  4.730e-001 	
        12.384	  3.750e-003 	             	
        12.409	             	  4.730e-001 	
        12.448	  3.710e-003 	             	
        12.505	             	  4.730e-001 	
        12.544	  3.770e-003 	             	
        12.569	             	  4.730e-001 	
        12.608	  3.790e-003 	             	
        12.633	             	  4.730e-001 	
        12.672	  3.810e-003 	             	
        12.697	             	  4.730e-001 	
        12.736	  3.790e-003 	             	
        12.761	             	  4.730e-001 	
        12.800	  3.790e-003 	             	
        12.825	             	  4.730e-001 	
        12.864	  3.780e-003 	             	
        12.889	             	  4.730e-001 	
        12.928	  3.770e-003 	             	
        12.953	             	  4.730e-001 	
        12.992	  3.790e-003 	             	
        13.017	             	  4.730e-001 	
        13.056	  3.810e-003 	             	
        13.081	             	  4.730e-001 	
        13.120	  3.800e-003 	             	
        13.145	             	  4.730e-001 	
        13.184	  3.800e-003 	             	
        13.209	             	  4.730e-001 	
        13.248	  3.770e-003 	             	
        13.305	             	  4.730e-001 	
        13.312	  3.800e-003 	             	
        13.369	             	  4.730e-001 	
        13.408	  3.830e-003 	             	
        13.433	             	  4.730e-001 	
        13.472	  3.800e-003 	             	
        13.497	             	  4.720e-001 	
        13.536	  3.790e-003 	             	
        13.561	             	  4.720e-001 	
        13.600	  3.780e-003 	             	
        13.625	             	  4.720e-001 	
        13.664	  3.840e-003 	             	
        13.689	             	  4.730e-001 	
        13.728	  3.810e-003 	             	
        13.753	             	  4.730e-001 	
        13.792	  3.820e-003 	             	
        13.817	             	  4.730e-001 	
        13.856	  3.830e-003 	             	
        13.881	             	  4.730e-001 	
        13.920	  3.840e-003 	             	
        13.945	             	  4.730e-001 	
        13.984	  3.850e-003 	             	
        14.009	             	  4.730e-001 	
        14.048	  3.830e-003 	             	
        14.105	             	  4.730e-001 	
        14.112	  3.810e-003 	             	
        14.169	             	  4.730e-001 	
        14.208	  3.830e-003 	             	
        14.233	             	  4.730e-001 	
        14.272	  3.810e-003 	             	
        14.297	             	  4.730e-001 	
        14.336	  3.810e-003 	             	
        14.361	             	  4.730e-001 	
        14.400	  3.820e-003 	             	
        14.425	             	  4.730e-001 	
        14.464	  3.780e-003 	             	
        14.489	             	  4.730e-001 	
        14.528	  3.790e-003 	             	
        14.553	             	  4.730e-001 	
        14.592	  3.800e-003 	             	
        14.617	             	  4.730e-001 	
        14.656	  3.790e-003 	             	
        14.681	             	  4.730e-001 	
        14.720	  3.780e-003 	             	
        14.745	             	  4.730e-001 	
        14.784	  3.770e-003 	             	
        14.809	             	  4.730e-001 	
        14.848	  3.770e-003 	             	
        14.905	             	  4.730e-001 	
        14.912	  3.770e-003 	             	
        14.969	             	  4.730e-001 	
        15.008	  3.750e-003 	             	
        15.033	             	  4.730e-001 	
        15.072	  3.750e-003 	             	
        15.097	             	  4.730e-001 	
        15.136	  3.760e-003 	             	
        15.161	             	  4.730e-001 	
        15.200	  3.730e-003 	             	
        15.225	             	  4.730e-001 	
        15.264	  3.740e-003 	             	
        15.289	             	  4.730e-001 	
        15.328	  3.740e-003 	             	
        15.353	             	  4.730e-001 	
        15.392	  3.750e-003 	             	
        15.417	             	  4.730e-001 	
        15.456	  3.730e-003 	             	
        15.481	             	  4.730e-001 	
        15.520	  3.720e-003 	             	
        15.545	             	  4.730e-001 	
        15.584	  3.710e-003 	             	
        15.609	             	  4.730e-001 	
        15.648	  3.720e-003 	             	
        15.705	             	  4.730e-001 	
        15.712	  3.700e-003 	             	
        15.769	             	  4.730e-001 	
        15.808	  3.690e-003 	             	
        15.833	             	  4.730e-001 	
        15.872	  3.680e-003 	             	
        15.897	             	  4.730e-001 	
        15.936	  3.700e-003 	             	
        15.961	             	  4.730e-001 	
        16.000	  3.700e-003 	             	
        16.025	             	  4.730e-001 	
        16.064	  3.710e-003 	             	
        16.089	             	  4.730e-001 	
        16.128	  3.700e-003 	             	
        16.153	             	  4.730e-001 	
        16.192	  3.700e-003 	             	
        16.217	             	  4.730e-001 	
        16.256	  3.660e-003 	             	
        16.281	             	  4.730e-001 	
        16.320	  3.680e-003 	             	
        16.345	             	  4.730e-001 	
        16.384	  3.690e-003 	             	
        16.409	             	  4.730e-001 	
        16.448	  3.700e-003 	             	
        16.504	             	  4.730e-001 	
        16.512	  3.700e-003 	             	
        16.568	             	  4.730e-001 	
        16.608	  3.710e-003 	             	
        16.633	             	  4.730e-001 	
        16.672	  3.680e-003 	             	
        16.697	             	  4.730e-001 	
        16.736	  3.690e-003 	             	
        16.761	             	  4.730e-001 	
        16.800	  3.690e-003 	             	
        16.824	             	  4.730e-001 	
        16.864	  3.700e-003 	             	
        16.888	             	  4.730e-001 	
        16.928	  3.690e-003 	             	
        16.952	             	  4.730e-001 	
        16.992	  3.720e-003 	             	
        17.016	             	  4.730e-001 	
        17.056	  3.700e-003 	             	
        17.081	             	  4.730e-001 	
        17.120	  3.720e-003 	             	
        17.144	             	  4.730e-001 	
        17.184	  3.730e-003 	             	
        17.208	             	  4.730e-001 	
        17.248	  3.720e-003 	             	
        17.305	             	  4.730e-001 	
        17.312	  3.730e-003 	             	
        17.369	             	  4.730e-001 	
        17.408	  3.730e-003 	             	
        17.432	             	  4.730e-001 	
        17.472	  3.720e-003 	             	
        17.496	             	  4.730e-001 	
        17.536	  3.770e-003 	             	
        17.560	             	  4.730e-001 	
        17.600	  3.760e-003 	             	
        17.624	             	  4.730e-001 	
        17.664	  3.730e-003 	             	
        17.688	             	  4.730e-001 	
        17.728	  3.770e-003 	             	
        17.753	             	  4.730e-001 	
        17.792	  3.760e-003 	             	
        17.816	             	  4.730e-001 	
        17.856	  3.750e-003 	             	
        17.881	             	  4.730e-001 	
        17.920	  3.750e-003 	             	
        17.945	             	  4.730e-001 	
        17.984	  3.760e-003 	             	
        18.008	             	  4.740e-001 	
        18.048	  3.770e-003 	             	
        18.104	             	  4.730e-001 	
        18.112	  3.750e-003 	             	
        18.168	             	  4.730e-001 	
        18.208	  3.780e-003 	             	
        18.232	             	  4.730e-001 	
        18.272	  3.770e-003 	             	
        18.296	             	  4.730e-001 	
        18.336	  3.800e-003 	             	
        18.361	             	  4.730e-001 	
        18.400	  3.790e-003 	             	
        18.424	             	  4.730e-001 	
        18.464	  3.800e-003 	             	
        18.488	             	  4.730e-001 	
        18.528	  3.810e-003 	             	
        18.552	             	  4.730e-001 	
        18.592	  3.810e-003 	             	
        18.616	             	  4.730e-001 	
        18.656	  3.800e-003 	             	
        18.680	             	  4.730e-001 	
        18.720	  3.820e-003 	             	
        18.744	             	  4.730e-001 	
        18.784	  3.810e-003 	             	
        18.808	             	  4.730e-001 	
        18.848	  3.790e-003 	             	
        18.904	             	  4.730e-001 	
        18.912	  3.810e-003 	             	
        18.968	             	  4.730e-001 	
        19.008	  3.810e-003 	             	
        19.032	             	  4.730e-001 	
        19.072	  3.800e-003 	             	
        19.096	             	  4.730e-001 	
        19.136	  3.800e-003 	             	
        19.160	             	  4.730e-001 	
        19.200	  3.810e-003 	             	
        19.224	             	  4.730e-001 	
        19.264	  3.800e-003 	             	
        19.288	             	  4.730e-001 	
        19.328	  3.790e-003 	             	
        19.352	             	  4.730e-001 	
        19.392	  3.800e-003 	             	
        19.416	             	  4.730e-001 	
        19.456	  3.820e-003 	             	
        19.480	             	  4.730e-001 	
        19.520	  3.830e-003 	             	
        19.544	             	  4.730e-001 	
        19.584	  3.800e-003 	             	
        19.608	             	  4.730e-001 	
        19.648	  3.820e-003 	             	
        19.704	             	  4.730e-001 	
        19.712	  3.820e-003 	             	
        19.768	             	  4.740e-001 	
        19.808	  3.800e-003 	             	
        19.832	             	  4.740e-001 	
        19.872	  3.790e-003 	             	
        19.896	             	  4.740e-001 	
        19.936	  3.770e-003 	             	
        19.960	             	  4.740e-001 	
        20.000	  3.780e-003 	             	
        20.024	             	  4.730e-001 	
        20.064	  3.800e-003 	             	
        20.088	             	  4.730e-001 	
        20.128	  3.760e-003 	             	
        20.152	             	  4.730e-001 	
        20.192	  3.740e-003 	             	
        20.216	             	  4.730e-001 	
        20.256	  3.740e-003 	             	
        20.280	             	  4.730e-001 	
        20.320	  3.740e-003 	             	
        20.344	             	  4.730e-001 	
        20.384	  3.730e-003 	             	
        20.408	             	  4.740e-001 	
        20.448	  3.750e-003 	             	
        20.504	             	  4.730e-001 	
        20.512	  3.750e-003 	             	
        20.568	             	  4.730e-001 	
        20.608	  3.720e-003 	             	
        20.632	             	  4.730e-001 	
        20.672	  3.700e-003 	             	
        20.696	             	  4.730e-001 	
        20.736	  3.750e-003 	             	
        20.760	             	  4.730e-001 	
        20.800	  3.740e-003 	             	
        20.824	             	  4.730e-001 	
        20.864	  3.680e-003 	             	
        20.888	             	  4.730e-001 	
        20.928	  3.700e-003 	             	
        20.952	             	  4.730e-001 	
        20.992	  3.690e-003 	             	
        21.016	             	  4.730e-001 	
        21.055	  3.670e-003 	             	
        21.080	             	  4.730e-001 	
        21.119	  3.680e-003 	             	
        21.144	             	  4.730e-001 	
        21.183	  3.640e-003 	             	
        21.208	             	  4.730e-001 	
        21.248	  3.670e-003 	             	
        21.304	             	  4.740e-001 	
        21.312	  3.660e-003 	             	
        21.368	             	  4.740e-001 	
        21.407	  3.680e-003 	             	
        21.432	             	  4.730e-001 	
        21.472	  3.700e-003 	             	
        21.496	             	  4.730e-001 	
        21.536	  3.680e-003 	             	
        21.560	             	  4.730e-001 	
        21.599	  3.660e-003 	             	
        21.624	             	  4.740e-001 	
        21.664	  3.660e-003 	             	
        21.688	             	  4.740e-001 	
        21.727	  3.680e-003 	             	
        21.752	             	  4.740e-001 	
        21.792	  3.670e-003 	             	
        21.816	             	  4.740e-001 	
        21.855	  3.690e-003 	             	
        21.880	             	  4.740e-001 	
        21.920	  3.660e-003 	             	
        21.944	             	  4.740e-001 	
        21.984	  3.650e-003 	             	
        22.008	             	  4.740e-001 	
        22.047	  3.680e-003 	             	
        22.072	             	  4.730e-001 	
        22.111	  3.690e-003 	             	
        22.168	             	  4.730e-001 	
        22.207	  3.690e-003 	             	
        22.232	             	  4.730e-001 	
        22.271	  3.690e-003 	             	
        22.296	             	  4.730e-001 	
        22.335	  3.690e-003 	             	
        22.360	             	  4.730e-001 	
        22.399	  3.690e-003 	             	
        22.424	             	  4.730e-001 	
        22.463	  3.680e-003 	             	
        22.488	             	  4.730e-001 	
        22.527	  3.710e-003 	             	
        22.552	             	  4.730e-001 	
        22.591	  3.720e-003 	             	
        22.616	             	  4.730e-001 	
        22.655	  3.710e-003 	             	
        22.680	             	  4.730e-001 	
        22.720	  3.740e-003 	             	
        22.744	             	  4.730e-001 	
        22.783	  3.770e-003 	             	
        22.808	             	  4.730e-001 	
        22.847	  3.780e-003 	             	
        22.872	             	  4.730e-001 	
        22.911	  3.800e-003 	             	
        22.968	             	  4.730e-001 	
        23.007	  3.780e-003 	             	
        23.032	             	  4.730e-001 	
        23.071	  3.780e-003 	             	
        23.096	             	  4.730e-001 	
        23.135	  3.800e-003 	             	
        23.160	             	  4.730e-001 	
        23.199	  3.820e-003 	             	
        23.224	             	  4.730e-001 	
        23.263	  3.770e-003 	             	
        23.288	             	  4.730e-001 	
        23.327	  3.850e-003 	             	
        23.352	             	  4.730e-001 	
        23.391	  3.830e-003 	             	
        23.416	             	  4.730e-001 	
        23.455	  3.840e-003 	             	
        23.480	             	  4.730e-001 	
        23.519	  3.860e-003 	             	
        23.544	             	  4.730e-001 	
        23.583	  3.860e-003 	             	
        23.608	             	  4.740e-001 	
        23.647	  3.830e-003 	             	
        23.672	             	  4.740e-001 	
        23.711	  3.820e-003 	             	
        23.768	             	  4.740e-001 	
        23.807	  3.850e-003 	             	
        23.832	             	  4.730e-001 	
        23.871	  3.870e-003 	             	
        23.896	             	  4.730e-001 	
        23.935	  3.890e-003 	             	
        23.960	             	  4.730e-001 	
        23.999	  3.850e-003 	             	
        24.024	             	  4.730e-001 	
        24.063	  3.840e-003 	             	
        24.088	             	  4.730e-001 	
        24.127	  3.870e-003 	             	
        24.152	             	  4.730e-001 	
        24.191	  3.860e-003 	             	
        24.216	             	  4.740e-001 	
        24.255	  3.850e-003 	             	
        24.280	             	  4.740e-001 	
        24.319	  3.840e-003 	             	
        24.344	             	  4.740e-001 	
        24.383	  3.830e-003 	             	
        24.408	             	  4.740e-001 	
        24.447	  3.830e-003 	             	
        24.472	             	  4.740e-001 	
        24.511	  3.830e-003 	             	
        24.568	             	  4.730e-001 	
        24.607	  3.820e-003 	             	
        24.632	             	  4.730e-001 	
        24.671	  3.840e-003 	             	
        24.696	             	  4.730e-001 	
        24.735	  3.850e-003 	             	
        24.760	             	  4.730e-001 	
        24.799	  3.840e-003 	             	
        24.824	             	  4.730e-001 	
        24.863	  3.810e-003 	             	
        24.888	             	  4.730e-001 	
        24.927	  3.800e-003 	             	
        24.952	             	  4.730e-001 	
        24.991	  3.810e-003 	             	
        25.016	             	  4.730e-001 	
        25.055	  3.820e-003 	             	
        25.080	             	  4.730e-001 	
        25.119	  3.800e-003 	             	
        25.144	             	  4.730e-001 	
        25.183	  3.800e-003 	             	
        25.208	             	  4.730e-001 	
        25.247	  3.790e-003 	             	
        25.272	             	  4.740e-001 	
        25.311	  3.780e-003 	             	
        25.368	             	  4.740e-001 	
        25.375	  3.770e-003 	             	
        25.432	             	  4.740e-001 	
        25.471	  3.760e-003 	             	
        25.496	             	  4.740e-001 	
        25.535	  3.770e-003 	             	
        25.560	             	  4.730e-001 	
        25.599	  3.740e-003 	             	
        25.624	             	  4.730e-001 	
        25.663	  3.730e-003 	             	
        25.688	             	  4.730e-001 	
        25.727	  3.710e-003 	             	
        25.752	             	  4.730e-001 	
        25.791	  3.670e-003 	             	
        25.817	             	  4.730e-001 	
        25.856	  3.710e-003 	             	
        25.881	             	  4.730e-001 	
        25.920	  3.730e-003 	             	
        25.945	             	  4.730e-001 	
        25.984	  3.720e-003 	             	
        26.009	             	  4.730e-001 	
        26.048	  3.700e-003 	             	
        26.073	             	  4.730e-001 	
        26.112	  3.680e-003 	             	
        26.169	             	  4.730e-001 	
        26.176	  3.720e-003 	             	
        26.233	             	  4.730e-001 	
        26.272	  3.690e-003 	             	
        26.297	             	  4.730e-001 	
        26.336	  3.660e-003 	             	
        26.361	             	  4.730e-001 	
        26.400	  3.700e-003 	             	
        26.425	             	  4.730e-001 	
        26.464	  3.740e-003 	             	
        26.489	             	  4.730e-001 	
        26.528	  3.700e-003 	             	
        26.553	             	  4.730e-001 	
        26.592	  3.640e-003 	             	
        26.617	             	  4.740e-001 	
        26.656	  3.650e-003 	             	
        26.681	             	  4.740e-001 	
        26.720	  3.680e-003 	             	
        26.745	             	  4.730e-001 	
        26.784	  3.690e-003 	             	
        26.809	             	  4.730e-001 	
        26.848	  3.670e-003 	             	
        26.873	             	  4.730e-001 	
        26.912	  3.680e-003 	             	
        26.969	             	  4.730e-001 	
        26.976	  3.650e-003 	             	
        27.033	             	  4.730e-001 	
        27.072	  3.660e-003 	             	
        27.097	             	  4.730e-001 	
        27.136	  3.670e-003 	             	
        27.161	             	  4.730e-001 	
        27.200	  3.680e-003 	             	
        27.225	             	  4.730e-001 	
        27.264	  3.650e-003 	             	
        27.289	             	  4.730e-001 	
        27.328	  3.660e-003 	             	
        27.353	             	  4.730e-001 	
        27.392	  3.680e-003 	             	
        27.417	             	  4.730e-001 	
        27.456	  3.660e-003 	             	
        27.481	             	  4.730e-001 	
        27.520	  3.680e-003 	             	
        27.545	             	  4.730e-001 	
        27.584	  3.700e-003 	             	
        27.609	             	  4.730e-001 	
        27.648	  3.620e-003 	             	
        27.673	             	  4.730e-001 	
        27.712	  3.710e-003 	             	
        27.769	             	  4.730e-001 	
        27.776	  3.690e-003 	             	
        27.833	             	  4.730e-001 	
        27.872	  3.700e-003 	             	
        27.897	             	  4.730e-001 	
        27.936	  3.700e-003 	             	
        27.961	             	  4.730e-001 	
        28.000	  3.710e-003 	             	
        28.025	             	  4.730e-001 	
        28.064	  3.710e-003 	             	
        28.089	             	  4.730e-001 	
        28.128	  3.800e-003 	             	
        28.153	             	  4.730e-001 	
        28.192	  3.780e-003 	             	
        28.217	             	  4.740e-001 	
        28.256	  3.810e-003 	             	
        28.281	             	  4.740e-001 	
        28.320	  3.780e-003 	             	
        28.345	             	  4.740e-001 	
        28.384	  3.790e-003 	             	
        28.409	             	  4.740e-001 	
        28.448	  3.820e-003 	             	
        28.473	             	  4.740e-001 	
        28.512	  3.790e-003 	             	
        28.569	             	  4.740e-001 	
        28.576	  3.770e-003 	             	
        28.633	             	  4.740e-001 	
        28.672	  3.830e-003 	             	
        28.697	             	  4.730e-001 	
        28.736	  3.810e-003 	             	
        28.761	             	  4.730e-001 	
        28.800	  3.810e-003 	             	
        28.825	             	  4.730e-001 	
        28.864	  3.830e-003 	             	
        28.889	             	  4.730e-001 	
        28.928	  3.810e-003 	             	
        28.953	             	  4.730e-001 	
        28.992	  3.810e-003 	             	
        29.017	             	  4.730e-001 	
        29.056	  3.840e-003 	             	
        29.081	             	  4.730e-001 	
        29.120	  3.860e-003 	             	
        29.145	             	  4.730e-001 	
        29.184	  3.840e-003 	             	
        29.209	             	  4.730e-001 	
        29.248	  3.850e-003 	             	
        29.273	             	  4.730e-001 	
        29.312	  3.870e-003 	             	
        29.369	             	  4.730e-001 	
        29.376	  3.860e-003 	             	
        29.433	             	  4.730e-001 	
        29.472	  3.870e-003 	             	
        29.497	             	  4.730e-001 	
        29.536	  3.860e-003 	             	
        29.561	             	  4.730e-001 	
        29.600	  3.860e-003 	             	
        29.625	             	  4.740e-001 	
        29.664	  3.840e-003 	             	
        29.689	             	  4.730e-001 	
        29.728	  3.850e-003 	             	
        29.753	             	  4.730e-001 	
        29.792	  3.860e-003 	             	
        29.817	             	  4.730e-001 	
        29.856	  3.820e-003 	             	
        29.881	             	  4.730e-001 	
        29.920	  3.810e-003 	             	
        29.945	             	  4.730e-001 	
        29.984	  3.820e-003 	             	
        30.009	             	  4.730e-001 	
        30.048	  3.830e-003 	             	
        30.073	             	  4.730e-001 	
        30.112	  3.830e-003 	             	
        30.169	             	  4.730e-001 	
        30.176	  3.830e-003 	             	
        30.233	             	  4.730e-001 	
        30.272	  3.800e-003 	             	
        30.297	             	  4.730e-001 	
        30.336	  3.800e-003 	             	
        30.361	             	  4.730e-001 	
        30.400	  3.800e-003 	             	
        30.425	             	  4.730e-001 	
        30.464	  3.820e-003 	             	
        30.489	             	  4.730e-001 	
        30.528	  3.800e-003 	             	
        30.553	             	  4.730e-001 	
        30.592	  3.790e-003 	             	
        30.617	             	  4.730e-001 	
        30.656	  3.770e-003 	             	
        30.681	             	  4.730e-001 	
        30.720	  3.790e-003 	             	
        30.745	             	  4.730e-001 	
        30.784	  3.800e-003 	             	
        30.809	             	  4.730e-001 	
        30.848	  3.770e-003 	             	
        30.873	             	  4.730e-001 	
        30.912	  3.750e-003 	             	
        30.969	             	  4.730e-001 	
        30.976	  3.750e-003 	             	
        31.033	             	  4.730e-001 	
        31.072	  3.750e-003 	             	
        31.097	             	  4.730e-001 	
        31.136	  3.730e-003 	             	
        31.161	             	  4.730e-001 	
        31.200	  3.760e-003 	             	
        31.225	             	  4.730e-001 	
        31.264	  3.760e-003 	             	
        31.289	             	  4.730e-001 	
        31.328	  3.770e-003 	             	
        31.353	             	  4.730e-001 	
        31.392	  3.740e-003 	             	
        31.417	             	  4.730e-001 	
        31.456	  3.720e-003 	             	
        31.481	             	  4.730e-001 	
        31.520	  3.760e-003 	             	
        31.545	             	  4.730e-001 	
        31.584	  3.690e-003 	             	
        31.609	             	  4.730e-001 	
        31.648	  3.730e-003 	             	
        31.673	             	  4.730e-001 	
        31.712	  3.730e-003 	             	
        31.769	             	  4.730e-001 	
        31.776	  3.680e-003 	             	
        31.833	             	  4.730e-001 	
        31.872	  3.720e-003 	             	
        31.897	             	  4.730e-001 	
        31.936	  3.700e-003 	             	
        31.961	             	  4.730e-001 	
        32.000	  3.690e-003 	             	
        32.025	             	  4.730e-001 	
        32.064	  3.700e-003 	             	
        32.089	             	  4.730e-001 	
        32.128	  3.730e-003 	             	
        32.153	             	  4.740e-001 	
        32.192	  3.690e-003 	             	
        32.217	             	  4.740e-001 	
        32.256	  3.690e-003 	             	
        32.281	             	  4.740e-001 	
        32.320	  3.720e-003 	             	
        32.345	             	  4.740e-001 	
        32.384	  3.680e-003 	             	
        32.409	             	  4.730e-001 	
        32.448	  3.690e-003 	             	
        32.473	             	  4.730e-001 	
        32.512	  3.710e-003 	             	
        32.569	             	  4.730e-001 	
        32.576	  3.680e-003 	             	
        32.633	             	  4.730e-001 	
        32.672	  3.710e-003 	             	
        32.697	             	  4.730e-001 	
        32.736	  3.700e-003 	             	
        32.761	             	  4.730e-001 	
        32.800	  3.710e-003 	             	
        32.825	             	  4.730e-001 	
        32.864	  3.690e-003 	             	
        32.889	             	  4.730e-001 	
        32.928	  3.660e-003 	             	
        32.953	             	  4.730e-001 	
        32.992	  3.640e-003 	             	
        33.017	             	  4.730e-001 	
        33.056	  3.730e-003 	             	
        33.081	             	  4.730e-001 	
        33.120	  3.680e-003 	             	
        33.145	             	  4.730e-001 	
        33.184	  3.680e-003 	             	
        33.209	             	  4.730e-001 	
        33.248	  3.680e-003 	             	
        33.273	             	  4.730e-001 	
        33.312	  3.700e-003 	             	
        33.369	             	  4.730e-001 	
        33.376	  3.730e-003 	             	
        33.433	             	  4.730e-001 	
        33.472	  3.730e-003 	             	
        33.496	             	  4.730e-001 	
        33.536	  3.730e-003 	             	
        33.561	             	  4.740e-001 	
        33.600	  3.770e-003 	             	
        33.625	             	  4.740e-001 	
        33.664	  3.780e-003 	             	
        33.689	             	  4.730e-001 	
        33.728	  3.790e-003 	             	
        33.753	             	  4.740e-001 	
        33.792	  3.800e-003 	             	
        33.817	             	  4.740e-001 	
        33.856	  3.800e-003 	             	
        33.881	             	  4.740e-001 	
        33.920	  3.840e-003 	             	
        33.945	             	  4.740e-001 	
        33.984	  3.840e-003 	             	
        34.009	             	  4.740e-001 	
        34.048	  3.860e-003 	             	
        34.073	             	  4.740e-001 	
        34.112	  3.890e-003 	             	
        34.137	             	  4.730e-001 	
        34.176	  3.920e-003 	             	
        34.233	             	  4.730e-001 	
        34.272	  3.900e-003 	             	
        34.296	             	  4.730e-001 	
        34.336	  3.920e-003 	             	
        34.361	             	  4.730e-001 	
        34.400	  3.960e-003 	             	
        34.425	             	  4.730e-001 	
        34.464	  3.970e-003 	             	
        34.488	             	  4.730e-001 	
        34.528	  3.970e-003 	             	
        34.553	             	  4.730e-001 	
        34.592	  3.990e-003 	             	
        34.616	             	  4.730e-001 	
        34.656	  4.010e-003 	             	
        34.681	             	  4.730e-001 	
        34.720	  3.960e-003 	             	
        34.744	             	  4.740e-001 	
        34.784	  3.950e-003 	             	
        34.808	             	  4.740e-001 	
        34.848	  3.970e-003 	             	
        34.872	             	  4.730e-001 	
        34.912	  3.970e-003 	             	
        34.936	             	  4.730e-001 	
        34.976	  3.980e-003 	             	
        35.032	             	  4.730e-001 	
        35.072	  3.960e-003 	             	
        35.096	             	  4.730e-001 	
        35.136	  3.980e-003 	             	
        35.160	             	  4.730e-001 	
        35.200	  3.970e-003 	             	
        35.224	             	  4.730e-001 	
        35.264	  3.980e-003 	             	
        35.288	             	  4.730e-001 	
        35.328	  3.960e-003 	             	
        35.352	             	  4.730e-001 	
        35.392	  3.970e-003 	             	
        35.416	             	  4.730e-001 	
        35.456	  3.960e-003 	             	
        35.480	             	  4.730e-001 	
        35.520	  3.970e-003 	             	
        35.545	             	  4.730e-001 	
        35.584	  3.950e-003 	             	
        35.608	             	  4.730e-001 	
        35.648	  3.930e-003 	             	
        35.672	             	  4.740e-001 	
        35.712	  3.910e-003 	             	
        35.736	             	  4.740e-001 	
        35.776	  3.890e-003 	             	
        35.832	             	  4.740e-001 	
        35.872	  3.880e-003 	             	
        35.896	             	  4.730e-001 	
        35.936	  3.890e-003 	             	
        35.960	             	  4.730e-001 	
        36.000	  3.840e-003 	             	
        36.024	             	  4.730e-001 	
        36.064	  3.820e-003 	             	
        36.088	             	  4.730e-001 	
        36.128	  3.800e-003 	             	
        36.152	             	  4.730e-001 	
        36.192	  3.800e-003 	             	
        36.216	             	  4.730e-001 	
        36.256	  3.780e-003 	             	
        36.280	             	  4.730e-001 	
        36.320	  3.760e-003 	             	
        36.344	             	  4.730e-001 	
        36.384	  3.770e-003 	             	
        36.408	             	  4.730e-001 	
        36.448	  3.770e-003 	             	
        36.472	             	  4.730e-001 	
        36.512	  3.750e-003 	             	
        36.536	             	  4.730e-001 	
        36.576	  3.720e-003 	             	
        36.632	             	  4.730e-001 	
        36.672	  3.700e-003 	             	
        36.696	             	  4.730e-001 	
        36.736	  3.750e-003 	             	
        36.760	             	  4.730e-001 	
        36.800	  3.710e-003 	             	
        36.824	             	  4.730e-001 	
        36.864	  3.690e-003 	             	
        36.888	             	  4.730e-001 	
        36.928	  3.690e-003 	             	
        36.952	             	  4.730e-001 	
        36.992	  3.690e-003 	             	
        37.016	             	  4.730e-001 	
        37.056	  3.660e-003 	             	
        37.080	             	  4.730e-001 	
        37.120	  3.680e-003 	             	
        37.144	             	  4.730e-001 	
        37.184	  3.690e-003 	             	
        37.208	             	  4.730e-001 	
        37.248	  3.660e-003 	             	
        37.272	             	  4.730e-001 	
        37.312	  3.670e-003 	             	
        37.336	             	  4.730e-001 	
        37.376	  3.670e-003 	             	
        37.432	             	  4.730e-001 	
        37.472	  3.690e-003 	             	
        37.496	             	  4.730e-001 	
        37.536	  3.660e-003 	             	
        37.560	             	  4.730e-001 	
        37.600	  3.680e-003 	             	
        37.624	             	  4.730e-001 	
        37.664	  3.630e-003 	             	
        37.688	             	  4.730e-001 	
        37.728	  3.650e-003 	             	
        37.752	             	  4.730e-001 	
        37.792	  3.670e-003 	             	
        37.816	             	  4.730e-001 	
        37.856	  3.680e-003 	             	
        37.880	             	  4.730e-001 	
        37.920	  3.690e-003 	             	
        37.944	             	  4.730e-001 	
        37.984	  3.690e-003 	             	
        38.008	             	  4.740e-001 	
        38.048	  3.670e-003 	             	
        38.072	             	  4.730e-001 	
        38.112	  3.690e-003 	             	
        38.136	             	  4.730e-001 	
        38.176	  3.650e-003 	             	
        38.232	             	  4.730e-001 	
        38.272	  3.690e-003 	             	
        38.296	             	  4.730e-001 	
        38.336	  3.690e-003 	             	
        38.360	             	  4.730e-001 	
        38.400	  3.710e-003 	             	
        38.424	             	  4.730e-001 	
        38.464	  3.720e-003 	             	
        38.488	             	  4.730e-001 	
        38.528	  3.740e-003 	             	
        38.552	             	  4.730e-001 	
        38.592	  3.760e-003 	             	
        38.616	             	  4.730e-001 	
        38.656	  3.780e-003 	             	
        38.680	             	  4.730e-001 	
        38.719	  3.790e-003 	             	
        38.744	             	  4.730e-001 	
        38.784	  3.800e-003 	             	
        38.808	             	  4.730e-001 	
        38.847	  3.830e-003 	             	
        38.872	             	  4.740e-001 	
        38.912	  3.880e-003 	             	
        38.936	             	  4.730e-001 	
        38.976	  3.920e-003 	             	
        39.032	             	  4.730e-001 	
        39.040	  3.930e-003 	             	
        39.096	             	  4.730e-001 	
        39.136	  3.960e-003 	             	
        39.160	             	  4.730e-001 	
        39.199	  3.940e-003 	             	
        39.224	             	  4.730e-001 	
        39.264	  3.990e-003 	             	
        39.288	             	  4.740e-001 	
        39.328	  3.980e-003 	             	
        39.352	             	  4.740e-001 	
        39.392	  4.010e-003 	             	
        39.416	             	  4.740e-001 	
        39.456	  4.010e-003 	             	
        39.480	             	  4.740e-001 	
        39.519	  4.030e-003 	             	
        39.544	             	  4.740e-001 	
        39.583	  4.110e-003 	             	
        39.608	             	  4.740e-001 	
        39.647	  4.120e-003 	             	
        39.672	             	  4.740e-001 	
        39.711	  4.130e-003 	             	
        39.736	             	  4.740e-001 	
        39.775	  4.190e-003 	             	
        39.832	             	  4.740e-001 	
        39.839	  4.190e-003 	             	
        39.896	             	  4.740e-001 	
        39.935	  4.270e-003 	             	
        39.960	             	  4.730e-001 	
        39.999	  4.230e-003 	             	
        40.024	             	  4.730e-001 	
        40.063	  4.280e-003 	             	
        40.088	             	  4.730e-001 	
        40.127	  4.300e-003 	             	
        40.152	             	  4.740e-001 	
        40.191	  4.230e-003 	             	
        40.216	             	  4.740e-001 	
        40.255	  4.320e-003 	             	
        40.280	             	  4.740e-001 	
        40.319	  4.290e-003 	             	
        40.344	             	  4.740e-001 	
        40.383	  4.280e-003 	             	
        40.408	             	  4.740e-001 	
        40.447	  4.250e-003 	             	
        40.472	             	  4.740e-001 	
        40.511	  4.160e-003 	             	
        40.536	             	  4.740e-001 	
        40.575	  4.120e-003 	             	
        40.632	             	  4.740e-001 	
        40.639	  4.150e-003 	             	
        40.696	             	  4.730e-001 	
        40.735	  4.070e-003 	             	
        40.760	             	  4.730e-001 	
        40.799	  3.990e-003 	             	
        40.824	             	  4.730e-001 	
        40.863	  3.880e-003 	             	
        40.888	             	  4.730e-001 	
        40.927	  3.830e-003 	             	
        40.952	             	  4.730e-001 	
        40.991	  3.770e-003 	             	
        41.016	             	  4.730e-001 	
        41.055	  3.720e-003 	             	
        41.080	             	  4.730e-001 	
        41.119	  3.680e-003 	             	
        41.144	             	  4.730e-001 	
        41.183	  3.660e-003 	             	
        41.208	             	  4.730e-001 	
        41.247	  3.650e-003 	             	
        41.272	             	  4.730e-001 	
        41.311	  3.640e-003 	             	
        41.336	             	  4.730e-001 	
        41.375	  3.640e-003 	             	
        41.432	             	  4.730e-001 	
        41.439	  3.650e-003 	             	
        41.496	             	  4.730e-001 	
        41.535	  3.660e-003 	             	
        41.560	             	  4.730e-001 	
        41.599	  3.670e-003 	             	
        41.624	             	  4.730e-001 	
        41.663	  3.680e-003 	             	
        41.688	             	  4.730e-001 	
        41.727	  3.680e-003 	             	
        41.752	             	  4.730e-001 	
        41.791	  3.720e-003 	             	
        41.816	             	  4.730e-001 	
        41.855	  3.750e-003 	             	
        41.880	             	  4.730e-001 	
        41.919	  3.740e-003 	             	
        41.944	             	  4.730e-001 	
        41.983	  3.770e-003 	             	
        42.008	             	  4.730e-001 	
        42.047	  3.800e-003 	             	
        42.072	             	  4.730e-001 	
        42.111	  3.800e-003 	             	
        42.136	             	  4.730e-001 	
        42.175	  3.820e-003 	             	
        42.232	             	  4.730e-001 	
        42.239	  3.840e-003 	             	
        42.296	             	  4.730e-001 	
        42.335	  3.790e-003 	             	
        42.360	             	  4.740e-001 	
        42.399	  3.810e-003 	             	
        42.424	             	  4.740e-001 	
        42.463	  3.800e-003 	             	
        42.488	             	  4.740e-001 	
        42.527	  3.810e-003 	             	
        42.552	             	  4.740e-001 	
        42.591	  3.800e-003 	             	
        42.616	             	  4.740e-001 	
        42.655	  3.810e-003 	             	
        42.680	             	  4.740e-001 	
        42.719	  3.810e-003 	             	
        42.744	             	  4.730e-001 	
        42.783	  3.810e-003 	             	
        42.808	             	  4.730e-001 	
        42.847	  3.800e-003 	             	
        42.872	             	  4.730e-001 	
        42.911	  3.810e-003 	             	
        42.936	             	  4.740e-001 	
        42.975	  3.820e-003 	             	
        43.032	             	  4.730e-001 	
        43.039	  3.810e-003 	             	
        43.096	             	  4.740e-001 	
        43.135	  3.810e-003 	             	
        43.160	             	  4.740e-001 	
        43.199	  3.790e-003 	             	
        43.224	             	  4.740e-001 	
        43.263	  3.800e-003 	             	
        43.288	             	  4.740e-001 	
        43.328	  3.800e-003 	             	
        43.353	             	  4.730e-001 	
        43.392	  3.810e-003 	             	
        43.417	             	  4.730e-001 	
        43.456	  3.750e-003 	             	
        43.481	             	  4.740e-001 	
        43.520	  3.760e-003 	             	
        43.545	             	  4.740e-001 	
        43.584	  3.760e-003 	             	
        43.609	             	  4.740e-001 	
        43.648	  3.780e-003 	             	
        43.673	             	  4.730e-001 	
        43.712	  3.760e-003 	             	
        43.737	             	  4.730e-001 	
        43.776	  3.750e-003 	             	
        43.833	             	  4.730e-001 	
        43.840	  3.750e-003 	             	
        43.897	             	  4.730e-001 	
        43.936	  3.780e-003 	             	
        43.961	             	  4.730e-001 	
        44.000	  3.760e-003 	             	
        44.025	             	  4.730e-001 	
        44.064	  3.740e-003 	             	
        44.089	             	  4.730e-001 	
        44.128	  3.720e-003 	             	
        44.153	             	  4.730e-001 	
        44.192	  3.780e-003 	             	
        44.217	             	  4.730e-001 	
        44.256	  3.770e-003 	             	
        44.281	             	  4.730e-001 	
        44.320	  3.790e-003 	             	
        44.345	             	  4.740e-001 	
        44.384	  3.770e-003 	             	
        44.409	             	  4.730e-001 	
        44.448	  3.800e-003 	             	
        44.473	             	  4.730e-001 	
        44.512	  3.850e-003 	             	
        44.537	             	  4.730e-001 	
        44.576	  3.890e-003 	             	
        44.633	             	  4.730e-001 	
        44.640	  3.880e-003 	             	
        44.697	             	  4.730e-001 	
        44.736	  3.870e-003 	             	
        44.761	             	  4.740e-001 	
        44.800	  3.900e-003 	             	
        44.825	             	  4.740e-001 	
        44.864	  3.890e-003 	             	
        44.889	             	  4.730e-001 	
        44.928	  3.880e-003 	             	
        44.953	             	  4.740e-001 	
        44.992	  3.880e-003 	             	
        45.017	             	  4.740e-001 	
        45.056	  3.870e-003 	             	
        45.081	             	  4.730e-001 	
        45.120	  3.820e-003 	             	
        45.145	             	  4.730e-001 	
        45.184	  3.860e-003 	             	
        45.209	             	  4.730e-001 	
        45.248	  3.860e-003 	             	
        45.273	             	  4.730e-001 	
        45.312	  3.830e-003 	             	
        45.337	             	  4.730e-001 	
        45.376	  3.840e-003 	             	
        45.433	             	  4.730e-001 	
        45.440	  3.840e-003 	             	
        45.497	             	  4.730e-001 	
        45.536	  3.850e-003 	             	
        45.561	             	  4.730e-001 	
        45.600	  3.830e-003 	             	
        45.625	             	  4.730e-001 	
        45.664	  3.840e-003 	             	
        45.689	             	  4.730e-001 	
        45.728	  3.860e-003 	             	
        45.753	             	  4.730e-001 	
        45.792	  3.860e-003 	             	
        45.817	             	  4.730e-001 	
        45.856	  3.860e-003 	             	
        45.881	             	  4.730e-001 	
        45.920	  3.870e-003 	             	
        45.945	             	  4.730e-001 	
        45.984	  3.850e-003 	             	
        46.009	             	  4.730e-001 	
        46.048	  3.870e-003 	             	
        46.073	             	  4.730e-001 	
        46.112	  3.830e-003 	             	
        46.137	             	  4.730e-001 	
        46.176	  3.870e-003 	             	
        46.233	             	  4.730e-001 	
        46.240	  3.860e-003 	             	
        46.297	             	  4.730e-001 	
        46.336	  3.850e-003 	             	
        46.361	             	  4.730e-001 	
        46.400	  3.870e-003 	             	
        46.425	             	  4.730e-001 	
        46.464	  3.890e-003 	             	
        46.489	             	  4.730e-001 	
        46.528	  3.850e-003 	             	
        46.553	             	  4.730e-001 	
        46.592	  3.880e-003 	             	
        46.617	             	  4.730e-001 	
        46.656	  3.840e-003 	             	
        46.681	             	  4.730e-001 	
        46.720	  3.870e-003 	             	
        46.745	             	  4.740e-001 	
        46.784	  3.850e-003 	             	
        46.809	             	  4.740e-001 	
        46.848	  3.860e-003 	             	
        46.873	             	  4.730e-001 	
        46.912	  3.870e-003 	             	
        46.937	             	  4.730e-001 	
        46.976	  3.870e-003 	             	
        47.001	             	  4.730e-001 	
        47.040	  3.850e-003 	             	
        47.097	             	  4.730e-001 	
        47.136	  3.840e-003 	             	
        47.161	             	  4.730e-001 	
        47.200	  3.830e-003 	             	
        47.225	             	  4.730e-001 	
        47.264	  3.840e-003 	             	
        47.289	             	  4.730e-001 	
        47.328	  3.840e-003 	             	
        47.353	             	  4.730e-001 	
        47.392	  3.850e-003 	             	
        47.417	             	  4.730e-001 	
        47.456	  3.830e-003 	             	
        47.481	             	  4.730e-001 	
        47.520	  3.850e-003 	             	
        47.545	             	  4.730e-001 	
        47.584	  3.830e-003 	             	
        47.609	             	  4.730e-001 	
        47.648	  3.800e-003 	             	
        47.673	             	  4.730e-001 	
        47.712	  3.830e-003 	             	
        47.737	             	  4.730e-001 	
        47.776	  3.830e-003 	             	
        47.801	             	  4.730e-001 	
        47.840	  3.870e-003 	             	
        47.897	             	  4.730e-001 	
        47.936	  3.840e-003 	             	
        47.961	             	  4.730e-001 	
        48.000	  3.810e-003 	             	
        48.025	             	  4.730e-001 	
        48.064	  3.860e-003 	             	
        48.089	             	  4.730e-001 	
        48.128	  3.990e-003 	             	
        48.153	             	  4.730e-001 	
        48.192	  3.960e-003 	             	
        48.217	             	  4.730e-001 	
        48.256	  3.900e-003 	             	
        48.281	             	  4.730e-001 	
        48.320	  3.930e-003 	             	
        48.345	             	  4.730e-001 	
        48.384	  3.880e-003 	             	
        48.409	             	  4.730e-001 	
        48.448	  3.890e-003 	             	
        48.473	             	  4.730e-001 	
        48.512	  3.880e-003 	             	
        48.537	             	  4.730e-001 	
        48.576	  3.880e-003 	             	
        48.601	             	  4.730e-001 	
        48.640	  3.900e-003 	             	
        48.697	             	  4.730e-001 	
        48.736	  3.890e-003 	             	
        48.761	             	  4.730e-001 	
        48.800	  3.870e-003 	             	
        48.825	             	  4.730e-001 	
        48.864	  3.860e-003 	             	
        48.889	             	  4.730e-001 	
        48.928	  3.870e-003 	             	
        48.953	             	  4.730e-001 	
        48.992	  3.870e-003 	             	
        49.017	             	  4.730e-001 	
        49.056	  3.890e-003 	             	
        49.081	             	  4.730e-001 	
        49.120	  3.880e-003 	             	
        49.145	             	  4.730e-001 	
        49.184	  3.890e-003 	             	
        49.209	             	  4.730e-001 	
        49.248	  3.880e-003 	             	
        49.273	             	  4.730e-001 	
        49.312	  3.850e-003 	             	
        49.337	             	  4.730e-001 	
        49.376	  3.890e-003 	             	
        49.401	             	  4.730e-001 	
        49.440	  3.890e-003 	             	
        49.497	             	  4.730e-001 	
        49.536	  3.900e-003 	             	
        49.561	             	  4.730e-001 	
        49.600	  3.920e-003 	             	
        49.625	             	  4.730e-001 	
        49.664	  3.930e-003 	             	
        49.689	             	  4.730e-001 	
        49.728	  3.870e-003 	             	
        49.753	             	  4.730e-001 	
        49.792	  3.900e-003 	             	
        49.817	             	  4.730e-001 	
        49.856	  3.890e-003 	             	
        49.881	             	  4.730e-001 	
        49.920	  3.890e-003 	             	
        49.945	             	  4.730e-001 	
        49.984	  3.870e-003 	             	
        50.009	             	  4.730e-001 	
        50.048	  3.890e-003 	             	
        50.073	             	  4.730e-001 	
        50.112	  3.890e-003 	             	
        50.137	             	  4.730e-001 	
        50.176	  3.890e-003 	             	
        50.201	             	  4.730e-001 	
        50.240	  3.890e-003 	             	
        50.297	             	  4.730e-001 	
        50.336	  3.890e-003 	             	
        50.361	             	  4.730e-001 	
        50.400	  3.890e-003 	             	
        50.425	             	  4.730e-001 	
        50.464	  3.880e-003 	             	
        50.489	             	  4.730e-001 	
        50.528	  3.880e-003 	             	
        50.553	             	  4.730e-001 	
        50.592	  3.870e-003 	             	
        50.617	             	  4.730e-001 	
        50.656	  3.880e-003 	             	
        50.681	             	  4.730e-001 	
        50.720	  3.860e-003 	             	
        50.745	             	  4.730e-001 	
        50.784	  3.890e-003 	             	
        50.809	             	  4.730e-001 	
        50.848	  3.870e-003 	             	
        50.873	             	  4.730e-001 	
        50.912	  3.870e-003 	             	
        50.937	             	  4.730e-001 	
        50.976	  3.920e-003 	             	
        51.001	             	  4.730e-001 	
        51.040	  3.890e-003 	             	
        51.096	             	  4.730e-001 	
        51.136	  3.800e-003 	             	
        51.160	             	  4.730e-001 	
        51.200	  3.900e-003 	             	
        51.225	             	  4.730e-001 	
        51.264	  3.890e-003 	             	
        51.289	             	  4.730e-001 	
        51.328	  3.900e-003 	             	
        51.353	             	  4.730e-001 	
        51.392	  3.900e-003 	             	
        51.417	             	  4.730e-001 	
        51.456	  3.890e-003 	             	
        51.481	             	  4.730e-001 	
        51.520	  3.890e-003 	             	
        51.545	             	  4.730e-001 	
        51.584	  3.920e-003 	             	
        51.609	             	  4.730e-001 	
        51.648	  3.900e-003 	             	
        51.673	             	  4.730e-001 	
        51.712	  3.910e-003 	             	
        51.737	             	  4.730e-001 	
        51.776	  3.890e-003 	             	
        51.801	             	  4.730e-001 	
        51.840	  3.920e-003 	             	
        51.897	             	  4.730e-001 	
        51.904	  3.920e-003 	             	
        51.960	             	  4.730e-001 	
        52.000	  3.920e-003 	             	
        52.024	             	  4.730e-001 	
        52.064	  3.910e-003 	             	
        52.088	             	  4.730e-001 	
        52.128	  3.880e-003 	             	
        52.152	             	  4.730e-001 	
        52.192	  3.930e-003 	             	
        52.217	             	  4.730e-001 	
        52.256	  3.930e-003 	             	
        52.280	             	  4.730e-001 	
        52.320	  3.910e-003 	             	
        52.344	             	  4.730e-001 	
        52.384	  3.950e-003 	             	
        52.409	             	  4.730e-001 	
        52.448	  3.910e-003 	             	
        52.472	             	  4.730e-001 	
        52.512	  3.870e-003 	             	
        52.536	             	  4.730e-001 	
        52.576	  3.930e-003 	             	
        52.600	             	  4.730e-001 	
        52.640	  3.920e-003 	             	
        52.696	             	  4.730e-001 	
        52.704	  3.910e-003 	             	
        52.760	             	  4.730e-001 	
        52.800	  3.940e-003 	             	
        52.824	             	  4.730e-001 	
        52.864	  3.950e-003 	             	
        52.888	             	  4.730e-001 	
        52.928	  3.960e-003 	             	
        52.952	             	  4.730e-001 	
        52.992	  3.940e-003 	             	
        53.016	             	  4.730e-001 	
        53.056	  3.930e-003 	             	
        53.080	             	  4.730e-001 	
        53.120	  3.900e-003 	             	
        53.144	             	  4.730e-001 	
        53.184	  3.930e-003 	             	
        53.208	             	  4.730e-001 	
        53.248	  3.970e-003 	             	
        53.272	             	  4.730e-001 	
        53.312	  3.960e-003 	             	
        53.336	             	  4.730e-001 	
        53.376	  3.970e-003 	             	
        53.400	             	  4.730e-001 	
        53.440	  3.950e-003 	             	
        53.496	             	  4.730e-001 	
        53.504	  3.950e-003 	             	
        53.560	             	  4.730e-001 	
        53.600	  3.930e-003 	             	
        53.625	             	  4.730e-001 	
        53.664	  3.950e-003 	             	
        53.688	             	  4.730e-001 	
        53.728	  3.950e-003 	             	
        53.752	             	  4.730e-001 	
        53.792	  3.970e-003 	             	
        53.816	             	  4.730e-001 	
        53.856	  3.960e-003 	             	
        53.881	             	  4.730e-001 	
        53.920	  3.940e-003 	             	
        53.944	             	  4.730e-001 	
        53.984	  3.950e-003 	             	
        54.008	             	  4.730e-001 	
        54.048	  3.940e-003 	             	
        54.072	             	  4.730e-001 	
        54.112	  3.940e-003 	             	
        54.136	             	  4.730e-001 	
        54.176	  3.970e-003 	             	
        54.200	             	  4.730e-001 	
        54.240	  3.950e-003 	             	
        54.296	             	  4.730e-001 	
        54.304	  3.970e-003 	             	
        54.360	             	  4.730e-001 	
        54.400	  3.900e-003 	             	
        54.424	             	  4.730e-001 	
        54.464	  3.930e-003 	             	
        54.488	             	  4.730e-001 	
        54.528	  3.960e-003 	             	
        54.552	             	  4.730e-001 	
        54.592	  3.970e-003 	             	
        54.616	             	  4.730e-001 	
        54.656	  3.970e-003 	             	
        54.680	             	  4.730e-001 	
        54.720	  3.970e-003 	             	
        54.744	             	  4.730e-001 	
        54.784	  3.940e-003 	             	
        54.808	             	  4.730e-001 	
        54.848	  4.020e-003 	             	
        54.872	             	  4.730e-001 	
        54.912	  3.960e-003 	             	
        54.936	             	  4.730e-001 	
        54.976	  3.970e-003 	             	
        55.000	             	  4.730e-001 	
        55.040	  3.980e-003 	             	
        55.096	             	  4.730e-001 	
        55.104	  3.970e-003 	             	
        55.160	             	  4.730e-001 	
        55.199	  3.990e-003 	             	
        55.224	             	  4.730e-001 	
        55.264	  3.970e-003 	             	
        55.288	             	  4.730e-001 	
        55.328	  3.990e-003 	             	
        55.352	             	  4.730e-001 	
        55.392	  3.980e-003 	             	
        55.416	             	  4.730e-001 	
        55.456	  4.020e-003 	             	
        55.480	             	  4.730e-001 	
        55.520	  3.990e-003 	             	
        55.544	             	  4.730e-001 	
        55.584	  3.960e-003 	             	
        55.608	             	  4.730e-001 	
        55.648	  3.970e-003 	             	
        55.672	             	  4.730e-001 	
        55.712	  4.030e-003 	             	
        55.736	             	  4.730e-001 	
        55.776	  3.970e-003 	             	
        55.800	             	  4.730e-001 	
        55.840	  3.970e-003 	             	
        55.896	             	  4.730e-001 	
        55.903	  4.000e-003 	             	
        55.960	             	  4.730e-001 	
        56.000	  3.980e-003 	             	
        56.024	             	  4.730e-001 	
        56.064	  4.020e-003 	             	
        56.088	             	  4.730e-001 	
        56.127	  4.000e-003 	             	
        56.152	             	  4.730e-001 	
        56.192	  4.030e-003 	             	
        56.216	             	  4.730e-001 	
        56.255	  4.040e-003 	             	
        56.280	             	  4.730e-001 	
        56.320	  4.060e-003 	             	
        56.344	             	  4.730e-001 	
        56.384	  4.060e-003 	             	
        56.408	             	  4.730e-001 	
        56.447	  4.060e-003 	             	
        56.472	             	  4.730e-001 	
        56.512	  4.070e-003 	             	
        56.536	             	  4.730e-001 	
        56.576	  4.080e-003 	             	
        56.600	             	  4.730e-001 	
        56.639	  4.080e-003 	             	
        56.696	             	  4.730e-001 	
        56.703	  4.090e-003 	             	
        56.760	             	  4.730e-001 	
        56.800	  4.080e-003 	             	
        56.824	             	  4.730e-001 	
        56.863	  4.090e-003 	             	
        56.888	             	  4.730e-001 	
        56.927	  4.120e-003 	             	
        56.952	             	  4.730e-001 	
        56.991	  4.080e-003 	             	
        57.016	             	  4.730e-001 	
        57.055	  4.090e-003 	             	
        57.080	             	  4.730e-001 	
        57.119	  4.100e-003 	             	
        57.144	             	  4.730e-001 	
        57.183	  4.120e-003 	             	
        57.208	             	  4.730e-001 	
        57.247	  4.120e-003 	             	
        57.272	             	  4.730e-001 	
        57.311	  4.130e-003 	             	
        57.336	             	  4.730e-001 	
        57.375	  4.110e-003 	             	
        57.400	             	  4.730e-001 	
        57.439	  4.090e-003 	             	
        57.496	             	  4.730e-001 	
        57.504	  4.070e-003 	             	
        57.560	             	  4.730e-001 	
        57.600	  4.110e-003 	             	
        57.624	             	  4.730e-001 	
        57.663	  4.110e-003 	             	
        57.688	             	  4.730e-001 	
        57.727	  4.110e-003 	             	
        57.752	             	  4.730e-001 	
        57.791	  4.110e-003 	             	
        57.816	             	  4.730e-001 	
        57.855	  4.070e-003 	             	
        57.880	             	  4.730e-001 	
        57.919	  4.110e-003 	             	
        57.944	             	  4.730e-001 	
        57.983	  4.090e-003 	             	
        58.008	             	  4.730e-001 	
        58.047	  4.110e-003 	             	
        58.072	             	  4.730e-001 	
        58.111	  4.110e-003 	             	
        58.136	             	  4.730e-001 	
        58.175	  4.090e-003 	             	
        58.200	             	  4.730e-001 	
        58.239	  4.050e-003 	             	
        58.296	             	  4.730e-001 	
        58.303	  4.080e-003 	             	
        58.360	             	  4.730e-001 	
        58.399	  4.110e-003 	             	
        58.424	             	  4.730e-001 	
        58.463	  4.140e-003 	             	
        58.488	             	  4.730e-001 	
        58.527	  4.120e-003 	             	
        58.552	             	  4.730e-001 	
        58.591	  4.100e-003 	             	
        58.616	             	  4.730e-001 	
        58.655	  4.090e-003 	             	
        58.680	             	  4.730e-001 	
        58.719	  4.090e-003 	             	
        58.744	             	  4.730e-001 	
        58.783	  4.080e-003 	             	
        58.808	             	  4.730e-001 	
        58.847	  4.110e-003 	             	
        58.872	             	  4.730e-001 	
        58.911	  4.120e-003 	             	
        58.936	             	  4.730e-001 	
        58.976	  4.110e-003 	             	
        59.000	             	  4.730e-001 	
        59.039	  4.100e-003 	             	
        59.096	             	  4.730e-001 	
        59.103	  4.100e-003 	             	
        59.160	             	  4.730e-001 	
        59.199	  4.100e-003 	             	
        59.224	             	  4.730e-001 	
        59.263	  4.110e-003 	             	
        59.288	             	  4.730e-001 	
        59.327	  4.110e-003 	             	
        59.352	             	  4.730e-001 	
        59.391	  4.140e-003 	             	
        59.416	             	  4.730e-001 	
        59.455	  4.100e-003 	             	
        59.480	             	  4.730e-001 	
        59.519	  4.130e-003 	             	
        59.544	             	  4.730e-001 	
        59.583	  4.120e-003 	             	
        59.608	             	  4.730e-001 	
        59.647	  4.110e-003 	             	
        59.672	             	  4.730e-001 	
        59.711	  4.120e-003 	             	
        59.736	             	  4.730e-001 	
        59.775	  4.110e-003 	             	
        59.800	             	  4.730e-001 	
        59.839	  4.100e-003 	             	
        59.864	             	  4.730e-001 	
        59.903	  4.100e-003 	             	
        59.960	             	  4.730e-001 	
        59.999	  4.110e-003 	             	
        60.024	             	  4.730e-001 	
        60.063	  4.120e-003 	             	
        60.088	             	  4.730e-001 	
        60.127	  4.110e-003 	             	
        60.152	             	  4.730e-001 	
        60.191	  4.100e-003 	             	
        60.216	             	  4.730e-001 	
        60.255	  4.090e-003 	             	
        60.280	             	  4.730e-001 	
        60.319	  4.090e-003 	             	
        60.344	             	  4.730e-001 	
        60.383	  4.080e-003 	             	
        60.408	             	  4.730e-001 	
        60.447	  4.070e-003 	             	
        60.472	             	  4.730e-001 	
        60.511	  4.090e-003 	             	
        60.536	             	  4.730e-001 	
        60.575	  4.070e-003 	             	
        60.600	             	  4.730e-001 	
        60.639	  4.050e-003 	             	
        60.664	             	  4.730e-001 	
        60.703	  4.050e-003 	             	
        60.760	             	  4.730e-001 	
        60.800	  4.050e-003 	             	
        60.825	             	  4.730e-001 	
        60.864	  4.040e-003 	             	
        60.889	             	  4.730e-001 	
        60.928	  4.020e-003 	             	
        60.953	             	  4.730e-001 	
        60.992	  4.010e-003 	             	
        61.017	             	  4.730e-001 	
        61.056	  3.950e-003 	             	
        61.081	             	  4.730e-001 	
        61.120	  3.980e-003 	             	
        61.145	             	  4.730e-001 	
        61.184	  3.950e-003 	             	
        61.209	             	  4.730e-001 	
        61.248	  3.950e-003 	             	
        61.273	             	  4.730e-001 	
        61.312	  3.920e-003 	             	
        61.337	             	  4.730e-001 	
        61.376	  3.960e-003 	             	
        61.401	             	  4.730e-001 	
        61.440	  3.940e-003 	             	
        61.465	             	  4.730e-001 	
        61.504	  3.920e-003 	             	
        61.561	             	  4.730e-001 	
        61.600	  3.920e-003 	             	
        61.625	             	  4.730e-001 	
        61.664	  3.920e-003 	             	
        61.689	             	  4.730e-001 	
        61.728	  3.910e-003 	             	
        61.753	             	  4.730e-001 	
        61.792	  3.890e-003 	             	
        61.817	             	  4.730e-001 	
        61.856	  3.880e-003 	             	
        61.881	             	  4.740e-001 	
        61.920	  3.870e-003 	             	
        61.945	             	  4.730e-001 	
        61.984	  3.860e-003 	             	
        62.009	             	  4.730e-001 	
        62.048	  3.850e-003 	             	
        62.073	             	  4.730e-001 	
        62.112	  3.830e-003 	             	
        62.137	             	  4.730e-001 	
        62.176	  3.850e-003 	             	
        62.201	             	  4.730e-001 	
        62.240	  3.810e-003 	             	
        62.265	             	  4.730e-001 	
        62.304	  3.810e-003 	             	
        62.361	             	  4.730e-001 	
        62.400	  3.800e-003 	             	
        62.425	             	  4.730e-001 	
        62.464	  3.790e-003 	             	
        62.489	             	  4.730e-001 	
        62.528	  3.780e-003 	             	
        62.553	             	  4.730e-001 	
        62.592	  3.780e-003 	             	
        62.617	             	  4.730e-001 	
        62.656	  3.750e-003 	             	
        62.681	             	  4.730e-001 	
        62.720	  3.750e-003 	             	
        62.745	             	  4.730e-001 	
        62.784	  3.760e-003 	             	
        62.809	             	  4.730e-001 	
        62.848	  3.750e-003 	             	
        62.873	             	  4.730e-001 	
        62.912	  3.740e-003 	             	
        62.937	             	  4.730e-001 	
        62.976	  3.720e-003 	             	
        63.001	             	  4.730e-001 	
        63.040	  3.720e-003 	             	
        63.065	             	  4.730e-001 	
        63.104	  3.720e-003 	             	
        63.161	             	  4.730e-001 	
        63.200	  3.710e-003 	             	
        63.225	             	  4.730e-001 	
        63.264	  3.690e-003 	             	
        63.289	             	  4.730e-001 	
        63.328	  3.690e-003 	             	
        63.353	             	  4.730e-001 	
        63.392	  3.670e-003 	             	
        63.417	             	  4.730e-001 	
        63.456	  3.660e-003 	             	
        63.481	             	  4.730e-001 	
        63.520	  3.670e-003 	             	
        63.545	             	  4.730e-001 	
        63.584	  3.660e-003 	             	
        63.609	             	  4.730e-001 	
        63.648	  3.640e-003 	             	
        63.673	             	  4.730e-001 	
        63.712	  3.630e-003 	             	
        63.737	             	  4.730e-001 	
        63.776	  3.650e-003 	             	
        63.801	             	  4.730e-001 	
        63.840	  3.640e-003 	             	
        63.865	             	  4.730e-001 	
        63.904	  3.610e-003 	             	
        63.961	             	  4.730e-001 	
        64.000	  3.610e-003 	             	
        64.025	             	  4.730e-001 	
        64.064	  3.610e-003 	             	
        64.089	             	  4.730e-001 	
        64.128	  3.610e-003 	             	
        64.153	             	  4.730e-001 	
        64.192	  3.590e-003 	             	
        64.217	             	  4.730e-001 	
        64.256	  3.600e-003 	             	
        64.281	             	  4.730e-001 	
        64.320	  3.580e-003 	             	
        64.345	             	  4.730e-001 	
        64.384	  3.590e-003 	             	
        64.409	             	  4.730e-001 	
        64.448	  3.550e-003 	             	
        64.473	             	  4.730e-001 	
        64.512	  3.550e-003 	             	
        64.537	             	  4.730e-001 	
        64.576	  3.560e-003 	             	
        64.601	             	  4.730e-001 	
        64.640	  3.540e-003 	             	
        64.665	             	  4.730e-001 	
        64.704	  3.530e-003 	             	
        64.761	             	  4.730e-001 	
        64.800	  3.540e-003 	             	
        64.825	             	  4.730e-001 	
        64.864	  3.540e-003 	             	
        64.889	             	  4.730e-001 	
        64.928	  3.520e-003 	             	
        64.953	             	  4.730e-001 	
        64.992	  3.540e-003 	             	
        65.017	             	  4.730e-001 	
        65.056	  3.520e-003 	             	
        65.081	             	  4.730e-001 	
        65.120	  3.500e-003 	             	
        65.145	             	  4.730e-001 	
        65.184	  3.500e-003 	             	
        65.209	             	  4.730e-001 	
        65.248	  3.520e-003 	             	
        65.273	             	  4.730e-001 	
        65.312	  3.460e-003 	             	
        65.337	             	  4.730e-001 	
        65.376	  3.500e-003 	             	
        65.401	             	  4.730e-001 	
        65.440	  3.490e-003 	             	
        65.465	             	  4.730e-001 	
        65.504	  3.480e-003 	             	
        65.561	             	  4.730e-001 	
        65.600	  3.480e-003 	             	
        65.625	             	  4.730e-001 	
        65.664	  3.460e-003 	             	
        65.689	             	  4.730e-001 	
        65.728	  3.450e-003 	             	
        65.753	             	  4.730e-001 	
        65.792	  3.460e-003 	             	
        65.817	             	  4.730e-001 	
        65.856	  3.450e-003 	             	
        65.881	             	  4.730e-001 	
        65.920	  3.470e-003 	             	
        65.945	             	  4.740e-001 	
        65.984	  3.450e-003 	             	
        66.009	             	  4.740e-001 	
        66.048	  3.440e-003 	             	
        66.073	             	  4.740e-001 	
        66.112	  3.430e-003 	             	
        66.137	             	  4.740e-001 	
        66.176	  3.390e-003 	             	
        66.201	             	  4.740e-001 	
        66.240	  3.370e-003 	             	
        66.265	             	  4.740e-001 	
        66.304	  3.440e-003 	             	
        66.361	             	  4.740e-001 	
        66.368	  3.410e-003 	             	
        66.425	             	  4.730e-001 	
        66.464	  3.400e-003 	             	
        66.489	             	  4.730e-001 	
        66.528	  3.440e-003 	             	
        66.553	             	  4.730e-001 	
        66.592	  3.410e-003 	             	
        66.617	             	  4.730e-001 	
        66.656	  3.420e-003 	             	
        66.681	             	  4.730e-001 	
        66.720	  3.410e-003 	             	
        66.745	             	  4.730e-001 	
        66.784	  3.400e-003 	             	
        66.809	             	  4.730e-001 	
        66.848	  3.400e-003 	             	
        66.873	             	  4.730e-001 	
        66.912	  3.410e-003 	             	
        66.937	             	  4.730e-001 	
        66.976	  3.390e-003 	             	
        67.001	             	  4.730e-001 	
        67.040	  3.380e-003 	             	
        67.065	             	  4.730e-001 	
        67.104	  3.390e-003 	             	
        67.161	             	  4.730e-001 	
        67.168	  3.390e-003 	             	
        67.225	             	  4.730e-001 	
        67.264	  3.400e-003 	             	
        67.289	             	  4.730e-001 	
        67.328	  3.380e-003 	             	
        67.353	             	  4.730e-001 	
        67.392	  3.390e-003 	             	
        67.417	             	  4.730e-001 	
        67.456	  3.380e-003 	             	
        67.481	             	  4.730e-001 	
        67.520	  3.370e-003 	             	
        67.545	             	  4.730e-001 	
        67.584	  3.380e-003 	             	
        67.609	             	  4.730e-001 	
        67.648	  3.380e-003 	             	
        67.673	             	  4.730e-001 	
        67.712	  3.390e-003 	             	
        67.737	             	  4.730e-001 	
        67.776	  3.360e-003 	             	
        67.801	             	  4.740e-001 	
        67.840	  3.360e-003 	             	
        67.865	             	  4.730e-001 	
        67.904	  3.380e-003 	             	
        67.961	             	  4.730e-001 	
        67.968	  3.380e-003 	             	
        68.025	             	  4.730e-001 	
        68.064	  3.390e-003 	             	
        68.089	             	  4.730e-001 	
        68.128	  3.380e-003 	             	
        68.153	             	  4.730e-001 	
        68.192	  3.410e-003 	             	
        68.216	             	  4.730e-001 	
        68.256	  3.390e-003 	             	
        68.281	             	  4.730e-001 	
        68.320	  3.410e-003 	             	
        68.344	             	  4.730e-001 	
        68.384	  3.400e-003 	             	
        68.409	             	  4.730e-001 	
        68.448	  3.410e-003 	             	
        68.473	             	  4.730e-001 	
        68.512	  3.380e-003 	             	
        68.537	             	  4.730e-001 	
        68.576	  3.400e-003 	             	
        68.601	             	  4.730e-001 	
        68.640	  3.390e-003 	             	
        68.665	             	  4.730e-001 	
        68.704	  3.390e-003 	             	
        68.761	             	  4.730e-001 	
        68.768	  3.380e-003 	             	
        68.825	             	  4.730e-001 	
        68.864	  3.390e-003 	             	
        68.888	             	  4.730e-001 	
        68.928	  3.380e-003 	             	
        68.953	             	  4.730e-001 	
        68.992	  3.380e-003 	             	
        69.017	             	  4.730e-001 	
        69.056	  3.410e-003 	             	
        69.081	             	  4.730e-001 	
        69.120	  3.380e-003 	             	
        69.145	             	  4.730e-001 	
        69.184	  3.360e-003 	             	
        69.208	             	  4.730e-001 	
        69.248	  3.370e-003 	             	
        69.273	             	  4.730e-001 	
        69.312	  3.390e-003 	             	
        69.336	             	  4.730e-001 	
        69.376	  3.360e-003 	             	
        69.401	             	  4.730e-001 	
        69.440	  3.330e-003 	             	
        69.465	             	  4.730e-001 	
        69.504	  3.310e-003 	             	
        69.560	             	  4.730e-001 	
        69.568	  3.300e-003 	             	
        69.624	             	  4.730e-001 	
        69.664	  3.290e-003 	             	
        69.689	             	  4.740e-001 	
        69.728	  3.250e-003 	             	
        69.752	             	  4.740e-001 	
        69.792	  3.260e-003 	             	
        69.816	             	  4.740e-001 	
        69.856	  3.270e-003 	             	
        69.880	             	  4.740e-001 	
        69.920	  3.250e-003 	             	
        69.945	             	  4.740e-001 	
        69.984	  3.230e-003 	             	
        70.008	             	  4.740e-001 	
        70.048	  3.230e-003 	             	
        70.072	             	  4.740e-001 	
        70.112	  3.260e-003 	             	
        70.136	             	  4.740e-001 	
        70.176	  3.260e-003 	             	
        70.201	             	  4.730e-001 	
        70.240	  3.310e-003 	             	
        70.264	             	  4.730e-001 	
        70.304	  3.310e-003 	             	
        70.360	             	  4.730e-001 	
        70.368	  3.330e-003 	             	
        70.424	             	  4.730e-001 	
        70.464	  3.320e-003 	             	
        70.488	             	  4.730e-001 	
        70.528	  3.350e-003 	             	
        70.552	             	  4.730e-001 	
        70.592	  3.350e-003 	             	
        70.616	             	  4.730e-001 	
        70.656	  3.360e-003 	             	
        70.680	             	  4.730e-001 	
        70.720	  3.390e-003 	             	
        70.744	             	  4.730e-001 	
        70.784	  3.390e-003 	             	
        70.808	             	  4.730e-001 	
        70.848	  3.360e-003 	             	
        70.872	             	  4.730e-001 	
        70.912	  3.390e-003 	             	
        70.936	             	  4.730e-001 	
        70.976	  3.400e-003 	             	
        71.000	             	  4.730e-001 	
        71.040	  3.410e-003 	             	
        71.064	             	  4.730e-001 	
        71.104	  3.430e-003 	             	
        71.160	             	  4.730e-001 	
        71.168	  3.410e-003 	             	
        71.224	             	  4.730e-001 	
        71.264	  3.410e-003 	             	
        71.288	             	  4.730e-001 	
        71.328	  3.430e-003 	             	
        71.352	             	  4.730e-001 	
        71.392	  3.420e-003 	             	
        71.416	             	  4.740e-001 	
        71.456	  3.410e-003 	             	
        71.480	             	  4.740e-001 	
        71.520	  3.430e-003 	             	
        71.544	             	  4.740e-001 	
        71.584	  3.440e-003 	             	
        71.608	             	  4.740e-001 	
        71.648	  3.410e-003 	             	
        71.672	             	  4.740e-001 	
        71.712	  3.420e-003 	             	
        71.736	             	  4.740e-001 	
        71.776	  3.420e-003 	             	
        71.800	             	  4.740e-001 	
        71.840	  3.420e-003 	             	
        71.864	             	  4.740e-001 	
        71.904	  3.410e-003 	             	
        71.960	             	  4.730e-001 	
        71.968	  3.410e-003 	             	
        72.024	             	  4.730e-001 	
        72.064	  3.400e-003 	             	
        72.088	             	  4.730e-001 	
        72.128	  3.410e-003 	             	
        72.152	             	  4.730e-001 	
        72.192	  3.420e-003 	             	
        72.216	             	  4.730e-001 	
        72.256	  3.420e-003 	             	
        72.280	             	  4.730e-001 	
        72.320	  3.420e-003 	             	
        72.344	             	  4.730e-001 	
        72.384	  3.410e-003 	             	
        72.408	             	  4.730e-001 	
        72.448	  3.440e-003 	             	
        72.472	             	  4.730e-001 	
        72.512	  3.430e-003 	             	
        72.536	             	  4.730e-001 	
        72.576	  3.450e-003 	             	
        72.600	             	  4.730e-001 	
        72.640	  3.450e-003 	             	
        72.664	             	  4.730e-001 	
        72.704	  3.420e-003 	             	
        72.728	             	  4.730e-001 	
        72.768	  3.420e-003 	             	
        72.824	             	  4.730e-001 	
        72.864	  3.460e-003 	             	
        72.888	             	  4.730e-001 	
        72.928	  3.440e-003 	             	
        72.952	             	  4.730e-001 	
        72.992	  3.440e-003 	             	
        73.016	             	  4.730e-001 	
        73.056	  3.450e-003 	             	
        73.080	             	  4.730e-001 	
        73.120	  3.440e-003 	             	
        73.144	             	  4.730e-001 	
        73.184	  3.450e-003 	             	
        73.208	             	  4.730e-001 	
        73.248	  3.450e-003 	             	
        73.272	             	  4.730e-001 	
        73.312	  3.450e-003 	             	
        73.336	             	  4.730e-001 	
        73.376	  3.450e-003 	             	
        73.400	             	  4.730e-001 	
        73.440	  3.440e-003 	             	
        73.464	             	  4.730e-001 	
        73.504	  3.460e-003 	             	
        73.528	             	  4.730e-001 	
        73.567	  3.490e-003 	             	
        73.624	             	  4.730e-001 	
        73.664	  3.500e-003 	             	
        73.688	             	  4.730e-001 	
        73.728	  3.480e-003 	             	
        73.752	             	  4.730e-001 	
        73.791	  3.510e-003 	             	
        73.816	             	  4.730e-001 	
        73.856	  3.490e-003 	             	
        73.880	             	  4.730e-001 	
        73.920	  3.500e-003 	             	
        73.944	             	  4.730e-001 	
        73.984	  3.500e-003 	             	
        74.008	             	  4.730e-001 	
        74.048	  3.480e-003 	             	
        74.072	             	  4.730e-001 	
        74.111	  3.510e-003 	             	
        74.136	             	  4.730e-001 	
        74.175	  3.490e-003 	             	
        74.200	             	  4.730e-001 	
        74.239	  3.500e-003 	             	
        74.264	             	  4.730e-001 	
        74.304	  3.500e-003 	             	
        74.328	             	  4.730e-001 	
        74.367	  3.490e-003 	             	
        74.424	             	  4.730e-001 	
        74.464	  3.480e-003 	             	
        74.488	             	  4.730e-001 	
        74.527	  3.480e-003 	             	
        74.552	             	  4.730e-001 	
        74.592	  3.480e-003 	             	
        74.616	             	  4.730e-001 	
        74.655	  3.480e-003 	             	
        74.680	             	  4.730e-001 	
        74.719	  3.480e-003 	             	
        74.744	             	  4.730e-001 	
        74.783	  3.470e-003 	             	
        74.808	             	  4.730e-001 	
        74.847	  3.460e-003 	             	
        74.872	             	  4.730e-001 	
        74.911	  3.460e-003 	             	
        74.936	             	  4.730e-001 	
        74.975	  3.500e-003 	             	
        75.000	             	  4.730e-001 	
        75.039	  3.480e-003 	             	
        75.064	             	  4.730e-001 	
        75.103	  3.480e-003 	             	
        75.128	             	  4.730e-001 	
        75.167	  3.470e-003 	             	
        75.224	             	  4.730e-001 	
        75.263	  3.490e-003 	             	
        75.288	             	  4.730e-001 	
        75.327	  3.480e-003 	             	
        75.352	             	  4.730e-001 	
        75.391	  3.480e-003 	             	
        75.416	             	  4.730e-001 	
        75.455	  3.490e-003 	             	
        75.480	             	  4.730e-001 	
        75.519	  3.480e-003 	             	
        75.544	             	  4.730e-001 	
        75.583	  3.480e-003 	             	
        75.608	             	  4.730e-001 	
        75.647	  3.470e-003 	             	
        75.672	             	  4.730e-001 	
        75.711	  3.490e-003 	             	
        75.736	             	  4.730e-001 	
        75.775	  3.500e-003 	             	
        75.800	             	  4.730e-001 	
        75.839	  3.490e-003 	             	
        75.864	             	  4.740e-001 	
        75.903	  3.500e-003 	             	
        75.928	             	  4.740e-001 	
        75.967	  3.500e-003 	             	
        76.024	             	  4.740e-001 	
        76.063	  3.490e-003 	             	
        76.088	             	  4.740e-001 	
        76.127	  3.460e-003 	             	
        76.152	             	  4.740e-001 	
        76.191	  3.460e-003 	             	
        76.216	             	  4.730e-001 	
        76.255	  3.470e-003 	             	
        76.280	             	  4.730e-001 	
        76.319	  3.480e-003 	             	
        76.344	             	  4.730e-001 	
        76.383	  3.460e-003 	             	
        76.408	             	  4.730e-001 	
        76.447	  3.480e-003 	             	
        76.472	             	  4.730e-001 	
        76.511	  3.470e-003 	             	
        76.536	             	  4.730e-001 	
        76.575	  3.480e-003 	             	
        76.600	             	  4.730e-001 	
        76.639	  3.490e-003 	             	
        76.664	             	  4.730e-001 	
        76.703	  3.480e-003 	             	
        76.728	             	  4.730e-001 	
        76.767	  3.490e-003 	             	
        76.824	             	  4.730e-001 	
        76.863	  3.470e-003 	             	
        76.888	             	  4.730e-001 	
        76.927	  3.500e-003 	             	
        76.952	             	  4.730e-001 	
        76.991	  3.490e-003 	             	
        77.016	             	  4.730e-001 	
        77.055	  3.490e-003 	             	
        77.080	             	  4.730e-001 	
        77.119	  3.480e-003 	             	
        77.144	             	  4.730e-001 	
        77.183	  3.520e-003 	             	
        77.208	             	  4.730e-001 	
        77.247	  3.510e-003 	             	
        77.272	             	  4.730e-001 	
        77.311	  3.520e-003 	             	
        77.336	             	  4.730e-001 	
        77.375	  3.520e-003 	             	
        77.400	             	  4.730e-001 	
        77.439	  3.530e-003 	             	
        77.464	             	  4.730e-001 	
        77.503	  3.530e-003 	             	
        77.528	             	  4.730e-001 	
        77.567	  3.530e-003 	             	
        77.624	             	  4.730e-001 	
        77.663	  3.530e-003 	             	
        77.688	             	  4.730e-001 	
        77.727	  3.520e-003 	             	
        77.752	             	  4.730e-001 	
        77.791	  3.530e-003 	             	
        77.816	             	  4.730e-001 	
        77.855	  3.500e-003 	             	
        77.880	             	  4.730e-001 	
        77.919	  3.530e-003 	             	
        77.944	             	  4.730e-001 	
        77.983	  3.530e-003 	             	
        78.008	             	  4.730e-001 	
        78.047	  3.510e-003 	             	
        78.072	             	  4.730e-001 	
        78.111	  3.520e-003 	             	
        78.136	             	  4.730e-001 	
        78.175	  3.520e-003 	             	
        78.200	             	  4.730e-001 	
        78.239	  3.530e-003 	             	
        78.265	             	  4.730e-001 	
        78.304	  3.520e-003 	             	
        78.329	             	  4.730e-001 	
        78.368	  3.500e-003 	             	
        78.425	             	  4.730e-001 	
        78.464	  3.520e-003 	             	
        78.489	             	  4.730e-001 	
        78.528	  3.520e-003 	             	
        78.553	             	  4.730e-001 	
        78.592	  3.500e-003 	             	
        78.617	             	  4.730e-001 	
        78.656	  3.500e-003 	             	
        78.681	             	  4.730e-001 	
        78.720	  3.510e-003 	             	
        78.745	             	  4.730e-001 	
        78.784	  3.520e-003 	             	
        78.809	             	  4.730e-001 	
        78.848	  3.490e-003 	             	
        78.873	             	  4.730e-001 	
        78.912	  3.510e-003 	             	
        78.937	             	  4.730e-001 	
        78.976	  3.520e-003 	             	
        79.001	             	  4.730e-001 	
        79.040	  3.510e-003 	             	
        79.065	             	  4.730e-001 	
        79.104	  3.490e-003 	             	
        79.129	             	  4.730e-001 	
        79.168	  3.500e-003 	             	
        79.225	             	  4.730e-001 	
        79.264	  3.490e-003 	             	
        79.289	             	  4.740e-001 	
        79.328	  3.480e-003 	             	
        79.353	             	  4.740e-001 	
        79.392	  3.470e-003 	             	
        79.417	             	  4.740e-001 	
        79.456	  3.500e-003 	             	
        79.481	             	  4.730e-001 	
        79.520	  3.490e-003 	             	
        79.545	             	  4.730e-001 	
        79.584	  3.470e-003 	             	
        79.609	             	  4.730e-001 	
        79.648	  3.500e-003 	             	
        79.673	             	  4.730e-001 	
        79.712	  3.460e-003 	             	
        79.737	             	  4.740e-001 	
        79.776	  3.460e-003 	             	
        79.801	             	  4.740e-001 	
        79.840	  3.470e-003 	             	
        79.865	             	  4.740e-001 	
        79.904	  3.460e-003 	             	
        79.929	             	  4.740e-001 	
        79.968	  3.460e-003 	             	
        80.025	             	  4.740e-001 	
        80.032	  3.460e-003 	             	
        80.089	             	  4.740e-001 	
        80.128	  3.470e-003 	             	
        80.153	             	  4.740e-001 	
        80.192	  3.470e-003 	             	
        80.217	             	  4.740e-001 	
        80.256	  3.470e-003 	             	
        80.281	             	  4.740e-001 	
        80.320	  3.450e-003 	             	
        80.345	             	  4.740e-001 	
        80.384	  3.450e-003 	             	
        80.409	             	  4.730e-001 	
        80.448	  3.460e-003 	             	
        80.473	             	  4.730e-001 	
        80.512	  3.440e-003 	             	
        80.537	             	  4.730e-001 	
        80.576	  3.470e-003 	             	
        80.601	             	  4.730e-001 	
        80.640	  3.450e-003 	             	
        80.665	             	  4.730e-001 	
        80.704	  3.460e-003 	             	
        80.729	             	  4.730e-001 	
        80.768	  3.460e-003 	             	
        80.825	             	  4.730e-001 	
        80.832	  3.500e-003 	             	
        80.889	             	  4.730e-001 	
        80.928	  3.470e-003 	             	
        80.953	             	  4.730e-001 	
        80.992	  3.450e-003 	             	
        81.017	             	  4.730e-001 	
        81.056	  3.470e-003 	             	
        81.081	             	  4.730e-001 	
        81.120	  3.470e-003 	             	
        81.145	             	  4.740e-001 	
        81.184	  3.470e-003 	             	
        81.209	             	  4.740e-001 	
        81.248	  3.500e-003 	             	
        81.273	             	  4.740e-001 	
        81.312	  3.480e-003 	             	
        81.337	             	  4.740e-001 	
        81.376	  3.500e-003 	             	
        81.401	             	  4.730e-001 	
        81.440	  3.480e-003 	             	
        81.465	             	  4.730e-001 	
        81.504	  3.470e-003 	             	
        81.529	             	  4.730e-001 	
        81.568	  3.480e-003 	             	
        81.625	             	  4.730e-001 	
        81.632	  3.480e-003 	             	
        81.689	             	  4.730e-001 	
        81.728	  3.500e-003 	             	
        81.753	             	  4.730e-001 	
        81.792	  3.500e-003 	             	
        81.817	             	  4.730e-001 	
        81.856	  3.490e-003 	             	
        81.881	             	  4.730e-001 	
        81.920	  3.490e-003 	             	
        81.945	             	  4.730e-001 	
        81.984	  3.460e-003 	             	
        82.009	             	  4.730e-001 	
        82.048	  3.500e-003 	             	
        82.073	             	  4.730e-001 	
        82.112	  3.490e-003 	             	
        82.137	             	  4.730e-001 	
        82.176	  3.480e-003 	             	
        82.201	             	  4.730e-001 	
        82.240	  3.500e-003 	             	
        82.265	             	  4.730e-001 	
        82.304	  3.490e-003 	             	
        82.329	             	  4.730e-001 	
        82.368	  3.510e-003 	             	
        82.425	             	  4.730e-001 	
        82.432	  3.500e-003 	             	
        82.489	             	  4.730e-001 	
        82.528	  3.500e-003 	             	
        82.553	             	  4.730e-001 	
        82.592	  3.520e-003 	             	
        82.617	             	  4.730e-001 	
        82.656	  3.530e-003 	             	
        82.681	             	  4.730e-001 	
        82.720	  3.510e-003 	             	
        82.745	             	  4.730e-001 	
        82.784	  3.520e-003 	             	
        82.809	             	  4.730e-001 	
        82.848	  3.520e-003 	             	
        82.873	             	  4.730e-001 	
        82.912	  3.530e-003 	             	
        82.937	             	  4.730e-001 	
        82.976	  3.530e-003 	             	
        83.001	             	  4.730e-001 	
        83.040	  3.530e-003 	             	
        83.065	             	  4.730e-001 	
        83.104	  3.530e-003 	             	
        83.129	             	  4.730e-001 	
        83.168	  3.490e-003 	             	
        83.225	             	  4.730e-001 	
        83.232	  3.490e-003 	             	
        83.289	             	  4.730e-001 	
        83.328	  3.510e-003 	             	
        83.353	             	  4.730e-001 	
        83.392	  3.510e-003 	             	
        83.417	             	  4.730e-001 	
        83.456	  3.510e-003 	             	
        83.481	             	  4.730e-001 	
        83.520	  3.500e-003 	             	
        83.545	             	  4.730e-001 	
        83.584	  3.500e-003 	             	
        83.609	             	  4.730e-001 	
        83.648	  3.490e-003 	             	
        83.673	             	  4.730e-001 	
        83.712	  3.480e-003 	             	
        83.737	             	  4.730e-001 	
        83.776	  3.500e-003 	             	
        83.801	             	  4.730e-001 	
        83.840	  3.510e-003 	             	
        83.865	             	  4.730e-001 	
        83.904	  3.490e-003 	             	
        83.929	             	  4.730e-001 	
        83.968	  3.500e-003 	             	
        84.025	             	  4.730e-001 	
        84.032	  3.500e-003 	             	
        84.089	             	  4.730e-001 	
        84.128	  3.480e-003 	             	
        84.153	             	  4.730e-001 	
        84.192	  3.480e-003 	             	
        84.217	             	  4.730e-001 	
        84.256	  3.490e-003 	             	
        84.281	             	  4.740e-001 	
        84.320	  3.470e-003 	             	
        84.345	             	  4.730e-001 	
        84.384	  3.470e-003 	             	
        84.409	             	  4.730e-001 	
        84.448	  3.470e-003 	             	
        84.473	             	  4.730e-001 	
        84.512	  3.490e-003 	             	
        84.537	             	  4.730e-001 	
        84.576	  3.490e-003 	             	
        84.601	             	  4.730e-001 	
        84.640	  3.480e-003 	             	
        84.665	             	  4.740e-001 	
        84.704	  3.460e-003 	             	
        84.729	             	  4.740e-001 	
        84.768	  3.460e-003 	             	
        84.793	             	  4.740e-001 	
        84.832	  3.440e-003 	             	
        84.889	             	  4.740e-001 	
        84.928	  3.440e-003 	             	
        84.953	             	  4.740e-001 	
        84.992	  3.440e-003 	             	
        85.017	             	  4.740e-001 	
        85.056	  3.440e-003 	             	
        85.081	             	  4.740e-001 	
        85.120	  3.430e-003 	             	
        85.145	             	  4.740e-001 	
        85.184	  3.440e-003 	             	
        85.209	             	  4.740e-001 	
        85.248	  3.430e-003 	             	
        85.273	             	  4.740e-001 	
        85.312	  3.410e-003 	             	
        85.337	             	  4.740e-001 	
        85.376	  3.420e-003 	             	
        85.401	             	  4.740e-001 	
        85.440	  3.430e-003 	             	
        85.465	             	  4.740e-001 	
        85.504	  3.430e-003 	             	
        85.529	             	  4.740e-001 	
        85.568	  3.430e-003 	             	
        85.593	             	  4.730e-001 	
        85.632	  3.430e-003 	             	
        85.689	             	  4.730e-001 	
        85.728	  3.430e-003 	             	
        85.753	             	  4.740e-001 	
        85.792	  3.440e-003 	             	
        85.817	             	  4.740e-001 	
        85.856	  3.430e-003 	             	
        85.881	             	  4.740e-001 	
        85.920	  3.420e-003 	             	
        85.945	             	  4.740e-001 	
        85.984	  3.420e-003 	             	
        86.009	             	  4.740e-001 	
        86.048	  3.430e-003 	             	
        86.073	             	  4.740e-001 	
        86.112	  3.460e-003 	             	
        86.137	             	  4.740e-001 	
        86.176	  3.430e-003 	             	
        86.201	             	  4.740e-001 	
        86.240	  3.450e-003 	             	
        86.265	             	  4.740e-001 	
        86.304	  3.470e-003 	             	
        86.328	             	  4.740e-001 	
        86.368	  3.450e-003 	             	
        86.393	             	  4.740e-001 	
        86.432	  3.440e-003 	             	
        86.489	             	  4.740e-001 	
        86.528	  3.440e-003 	             	
        86.553	             	  4.740e-001 	
        86.592	  3.460e-003 	             	
        86.617	             	  4.740e-001 	
        86.656	  3.450e-003 	             	
        86.681	             	  4.740e-001 	
        86.720	  3.450e-003 	             	
        86.745	             	  4.740e-001 	
        86.784	  3.450e-003 	             	
        86.809	             	  4.730e-001 	
        86.848	  3.450e-003 	             	
        86.873	             	  4.730e-001 	
        86.912	  3.450e-003 	             	
        86.937	             	  4.730e-001 	
        86.976	  3.440e-003 	             	
        87.000	             	  4.730e-001 	
        87.040	  3.470e-003 	             	
        87.064	             	  4.730e-001 	
        87.104	  3.470e-003 	             	
        87.128	             	  4.730e-001 	
        87.168	  3.520e-003 	             	
        87.192	             	  4.740e-001 	
        87.232	  3.490e-003 	             	
        87.289	             	  4.740e-001 	
        87.328	  3.490e-003 	             	
        87.352	             	  4.740e-001 	
        87.392	  3.500e-003 	             	
        87.416	             	  4.740e-001 	
        87.456	  3.490e-003 	             	
        87.480	             	  4.740e-001 	
        87.520	  3.510e-003 	             	
        87.544	             	  4.740e-001 	
        87.584	  3.510e-003 	             	
        87.608	             	  4.730e-001 	
        87.648	  3.540e-003 	             	
        87.672	             	  4.740e-001 	
        87.712	  3.520e-003 	             	
        87.736	             	  4.740e-001 	
        87.776	  3.540e-003 	             	
        87.800	             	  4.740e-001 	
        87.840	  3.530e-003 	             	
        87.864	             	  4.740e-001 	
        87.904	  3.560e-003 	             	
        87.928	             	  4.740e-001 	
        87.968	  3.530e-003 	             	
        87.992	             	  4.740e-001 	
        88.032	  3.520e-003 	             	
        88.088	             	  4.740e-001 	
        88.128	  3.520e-003 	             	
        88.152	             	  4.740e-001 	
        88.192	  3.550e-003 	             	
        88.216	             	  4.740e-001 	
        88.256	  3.550e-003 	             	
        88.280	             	  4.730e-001 	
        88.320	  3.530e-003 	             	
        88.344	             	  4.730e-001 	
        88.384	  3.520e-003 	             	
        88.409	             	  4.730e-001 	
        88.448	  3.540e-003 	             	
        88.472	             	  4.730e-001 	
        88.512	  3.530e-003 	             	
        88.536	             	  4.740e-001 	
        88.576	  3.530e-003 	             	
        88.600	             	  4.740e-001 	
        88.640	  3.550e-003 	             	
        88.664	             	  4.740e-001 	
        88.704	  3.540e-003 	             	
        88.728	             	  4.740e-001 	
        88.768	  3.520e-003 	             	
        88.792	             	  4.740e-001 	
        88.832	  3.500e-003 	             	
        88.888	             	  4.740e-001 	
        88.928	  3.530e-003 	             	
        88.952	             	  4.740e-001 	
        88.992	  3.510e-003 	             	
        89.016	             	  4.740e-001 	
        89.056	  3.510e-003 	             	
        89.080	             	  4.740e-001 	
        89.120	  3.480e-003 	             	
        89.144	             	  4.740e-001 	
        89.184	  3.470e-003 	             	
        89.208	             	  4.740e-001 	
        89.248	  3.490e-003 	             	
        89.272	             	  4.730e-001 	
        89.312	  3.500e-003 	             	
        89.336	             	  4.730e-001 	
        89.376	  3.490e-003 	             	
        89.400	             	  4.730e-001 	
        89.440	  3.470e-003 	             	
        89.464	             	  4.730e-001 	
        89.504	  3.450e-003 	             	
        89.528	             	  4.740e-001 	
        89.568	  3.460e-003 	             	
        89.592	             	  4.740e-001 	
        89.632	  3.460e-003 	             	
        89.688	             	  4.740e-001 	
        89.728	  3.440e-003 	             	
        89.752	             	  4.740e-001 	
        89.792	  3.400e-003 	             	
        89.816	             	  4.740e-001 	
        89.856	  3.450e-003 	             	
        89.881	             	  4.730e-001 	
        89.920	  3.440e-003 	             	
        89.944	             	  4.740e-001 	
        89.984	  3.420e-003 	             	
        90.008	             	  4.740e-001 	
        90.048	  3.410e-003 	             	
        90.072	             	  4.740e-001 	
        90.112	  3.400e-003 	             	
        90.136	             	  4.730e-001 	
        90.176	  3.390e-003 	             	
        90.200	             	  4.730e-001 	
        90.240	  3.400e-003 	             	
        90.264	             	  4.730e-001 	
        90.304	  3.390e-003 	             	
        90.328	             	  4.740e-001 	
        90.368	  3.400e-003 	             	
        90.392	             	  4.730e-001 	
        90.432	  3.410e-003 	             	
        90.488	             	  4.740e-001 	
        90.528	  3.410e-003 	             	
        90.552	             	  4.730e-001 	
        90.592	  3.400e-003 	             	
        90.616	             	  4.730e-001 	
        90.656	  3.390e-003 	             	
        90.680	             	  4.730e-001 	
        90.720	  3.390e-003 	             	
        90.744	             	  4.730e-001 	
        90.784	  3.390e-003 	             	
        90.808	             	  4.740e-001 	
        90.848	  3.390e-003 	             	
        90.872	             	  4.740e-001 	
        90.912	  3.400e-003 	             	
        90.936	             	  4.730e-001 	
        90.976	  3.400e-003 	             	
        91.000	             	  4.730e-001 	
        91.040	  3.410e-003 	             	
        91.064	             	  4.730e-001 	
        91.104	  3.400e-003 	             	
        91.128	             	  4.730e-001 	
        91.168	  3.400e-003 	             	
        91.192	             	  4.730e-001 	
        91.232	  3.400e-003 	             	
        91.288	             	  4.730e-001 	
        91.328	  3.430e-003 	             	
        91.352	             	  4.730e-001 	
        91.391	  3.420e-003 	             	
        91.416	             	  4.730e-001 	
        91.455	  3.440e-003 	             	
        91.480	             	  4.730e-001 	
        91.520	  3.440e-003 	             	
        91.544	             	  4.730e-001 	
        91.584	  3.440e-003 	             	
        91.608	             	  4.730e-001 	
        91.647	  3.460e-003 	             	
        91.672	             	  4.730e-001 	
        91.712	  3.470e-003 	             	
        91.736	             	  4.730e-001 	
        91.775	  3.470e-003 	             	
        91.800	             	  4.740e-001 	
        91.840	  3.450e-003 	             	
        91.864	             	  4.740e-001 	
        91.904	  3.480e-003 	             	
        91.928	             	  4.740e-001 	
        91.967	  3.510e-003 	             	
        91.992	             	  4.740e-001 	
        92.031	  3.500e-003 	             	
        92.088	             	  4.740e-001 	
        92.127	  3.520e-003 	             	
        92.152	             	  4.740e-001 	
        92.192	  3.490e-003 	             	
        92.216	             	  4.730e-001 	
        92.255	  3.500e-003 	             	
        92.280	             	  4.730e-001 	
        92.319	  3.520e-003 	             	
        92.344	             	  4.730e-001 	
        92.383	  3.530e-003 	             	
        92.408	             	  4.730e-001 	
        92.447	  3.500e-003 	             	
        92.472	             	  4.730e-001 	
        92.511	  3.520e-003 	             	
        92.536	             	  4.730e-001 	
        92.575	  3.530e-003 	             	
        92.600	             	  4.730e-001 	
        92.639	  3.520e-003 	             	
        92.664	             	  4.730e-001 	
        92.703	  3.520e-003 	             	
        92.728	             	  4.730e-001 	
        92.767	  3.540e-003 	             	
        92.792	             	  4.730e-001 	
        92.831	  3.550e-003 	             	
        92.888	             	  4.730e-001 	
        92.895	  3.550e-003 	             	
        92.952	             	  4.730e-001 	
        92.991	  3.550e-003 	             	
        93.016	             	  4.730e-001 	
        93.055	  3.570e-003 	             	
        93.080	             	  4.730e-001 	
        93.119	  3.540e-003 	             	
        93.144	             	  4.730e-001 	
        93.183	  3.540e-003 	             	
        93.208	             	  4.730e-001 	
        93.248	  3.510e-003 	             	
        93.272	             	  4.740e-001 	
        93.311	  3.530e-003 	             	
        93.336	             	  4.730e-001 	
        93.375	  3.520e-003 	             	
        93.400	             	  4.730e-001 	
        93.439	  3.530e-003 	             	
        93.464	             	  4.730e-001 	
        93.503	  3.490e-003 	             	
        93.528	             	  4.730e-001 	
        93.567	  3.510e-003 	             	
        93.592	             	  4.730e-001 	
        93.631	  3.520e-003 	             	
        93.688	             	  4.730e-001 	
        93.727	  3.500e-003 	             	
        93.752	             	  4.730e-001 	
        93.791	  3.480e-003 	             	
        93.816	             	  4.730e-001 	
        93.855	  3.470e-003 	             	
        93.880	             	  4.730e-001 	
        93.919	  3.490e-003 	             	
        93.944	             	  4.730e-001 	
        93.983	  3.490e-003 	             	
        94.008	             	  4.730e-001 	
        94.047	  3.460e-003 	             	
        94.072	             	  4.730e-001 	
        94.111	  3.460e-003 	             	
        94.136	             	  4.730e-001 	
        94.175	  3.440e-003 	             	
        94.200	             	  4.730e-001 	
        94.239	  3.450e-003 	             	
        94.264	             	  4.730e-001 	
        94.303	  3.430e-003 	             	
        94.328	             	  4.730e-001 	
        94.367	  3.410e-003 	             	
        94.392	             	  4.730e-001 	
        94.431	  3.420e-003 	             	
        94.488	             	  4.730e-001 	
        94.495	  3.400e-003 	             	
        94.552	             	  4.730e-001 	
        94.591	  3.380e-003 	             	
        94.616	             	  4.730e-001 	
        94.655	  3.410e-003 	             	
        94.680	             	  4.730e-001 	
        94.719	  3.370e-003 	             	
        94.744	             	  4.730e-001 	
        94.783	  3.360e-003 	             	
        94.808	             	  4.740e-001 	
        94.847	  3.360e-003 	             	
        94.872	             	  4.740e-001 	
        94.911	  3.360e-003 	             	
        94.936	             	  4.740e-001 	
        94.975	  3.360e-003 	             	
        95.000	             	  4.740e-001 	
        95.039	  3.360e-003 	             	
        95.064	             	  4.740e-001 	
        95.103	  3.340e-003 	             	
        95.128	             	  4.740e-001 	
        95.167	  3.350e-003 	             	
        95.192	             	  4.740e-001 	
        95.231	  3.350e-003 	             	
        95.288	             	  4.740e-001 	
        95.295	  3.360e-003 	             	
        95.352	             	  4.740e-001 	
        95.391	  3.320e-003 	             	
        95.416	             	  4.740e-001 	
        95.455	  3.330e-003 	             	
        95.480	             	  4.740e-001 	
        95.519	  3.320e-003 	             	
        95.544	             	  4.730e-001 	
        95.583	  3.320e-003 	             	
        95.608	             	  4.730e-001 	
        95.647	  3.320e-003 	             	
        95.672	             	  4.730e-001 	
        95.711	  3.330e-003 	             	
        95.736	             	  4.730e-001 	
        95.776	  3.330e-003 	             	
        95.801	             	  4.740e-001 	
        95.840	  3.340e-003 	             	
        95.865	             	  4.740e-001 	
        95.904	  3.310e-003 	             	
        95.929	             	  4.740e-001 	
        95.968	  3.310e-003 	             	
        95.993	             	  4.740e-001 	
        96.032	  3.330e-003 	             	
        96.089	             	  4.740e-001 	
        96.096	  3.340e-003 	             	
        96.153	             	  4.740e-001 	
        96.192	  3.340e-003 	             	
        96.217	             	  4.740e-001 	
        96.256	  3.330e-003 	             	
        96.281	             	  4.740e-001 	
        96.320	  3.320e-003 	             	
        96.345	             	  4.740e-001 	
        96.384	  3.340e-003 	             	
        96.409	             	  4.740e-001 	
        96.448	  3.330e-003 	             	
        96.473	             	  4.740e-001 	
        96.512	  3.330e-003 	             	
        96.537	             	  4.740e-001 	
        96.576	  3.310e-003 	             	
        96.601	             	  4.740e-001 	
        96.640	  3.320e-003 	             	
        96.665	             	  4.740e-001 	
        96.704	  3.320e-003 	             	
        96.729	             	  4.740e-001 	
        96.768	  3.300e-003 	             	
        96.793	             	  4.740e-001 	
        96.832	  3.310e-003 	             	
        96.889	             	  4.740e-001 	
        96.896	  3.330e-003 	             	
        96.953	             	  4.730e-001 	
        96.992	  3.360e-003 	             	
        97.017	             	  4.730e-001 	
        97.056	  3.350e-003 	             	
        97.081	             	  4.730e-001 	
        97.120	  3.330e-003 	             	
        97.145	             	  4.740e-001 	
        97.184	  3.350e-003 	             	
        97.209	             	  4.740e-001 	
        97.248	  3.370e-003 	             	
        97.273	             	  4.740e-001 	
        97.312	  3.370e-003 	             	
        97.337	             	  4.740e-001 	
        97.376	  3.400e-003 	             	
        97.401	             	  4.740e-001 	
        97.440	  3.400e-003 	             	
        97.465	             	  4.740e-001 	
        97.504	  3.370e-003 	             	
        97.529	             	  4.740e-001 	
        97.568	  3.360e-003 	             	
        97.593	             	  4.740e-001 	
        97.632	  3.380e-003 	             	
        97.689	             	  4.730e-001 	
        97.696	  3.400e-003 	             	
        97.753	             	  4.730e-001 	
        97.792	  3.390e-003 	             	
        97.817	             	  4.730e-001 	
        97.856	  3.380e-003 	             	
        97.881	             	  4.730e-001 	
        97.920	  3.410e-003 	             	
        97.945	             	  4.730e-001 	
        97.984	  3.390e-003 	             	
        98.009	             	  4.730e-001 	
        98.048	  3.420e-003 	             	
        98.073	             	  4.730e-001 	
        98.112	  3.390e-003 	             	
        98.137	             	  4.730e-001 	
        98.176	  3.420e-003 	             	
        98.201	             	  4.730e-001 	
        98.240	  3.430e-003 	             	
        98.265	             	  4.740e-001 	
        98.304	  3.460e-003 	             	
        98.329	             	  4.740e-001 	
        98.368	  3.460e-003 	             	
        98.393	             	  4.740e-001 	
        98.432	  3.500e-003 	             	
        98.489	             	  4.740e-001 	
        98.496	  3.460e-003 	             	
        98.553	             	  4.740e-001 	
        98.592	  3.480e-003 	             	
        98.617	             	  4.740e-001 	
        98.656	  3.470e-003 	             	
        98.681	             	  4.740e-001 	
        98.720	  3.480e-003 	             	
        98.745	             	  4.740e-001 	
        98.784	  3.490e-003 	             	
        98.809	             	  4.740e-001 	
        98.848	  3.470e-003 	             	
        98.873	             	  4.740e-001 	
        98.912	  3.480e-003 	             	
        98.937	             	  4.740e-001 	
        98.976	  3.480e-003 	             	
        99.001	             	  4.740e-001 	
        99.040	  3.460e-003 	             	
        99.065	             	  4.740e-001 	
        99.104	  3.450e-003 	             	
        99.129	             	  4.740e-001 	
        99.168	  3.460e-003 	             	
        99.193	             	  4.740e-001 	
        99.232	  3.460e-003 	             	
        99.257	             	  4.740e-001 	
        99.296	  3.450e-003 	             	
        99.353	             	  4.740e-001 	
        99.392	  3.440e-003 	             	
        99.417	             	  4.740e-001 	
        99.456	  3.400e-003 	             	
        99.481	             	  4.740e-001 	
        99.520	  3.430e-003 	             	
        99.545	             	  4.740e-001 	
        99.584	  3.400e-003 	             	
        99.609	             	  4.740e-001 	
        99.648	  3.370e-003 	             	
        99.673	             	  4.730e-001 	
        99.712	  3.410e-003 	             	
        99.737	             	  4.730e-001 	
        99.776	  3.390e-003 	             	
        99.801	             	  4.730e-001 	
        99.840	  3.410e-003 	             	
        99.865	             	  4.730e-001 	
        99.904	  3.420e-003 	             	
        99.929	             	  4.730e-001 	
        99.968	  3.420e-003 	             	
        99.993	             	  4.730e-001 	
       100.032	  3.400e-003 	             	
       100.057	             	  4.730e-001 	
       100.096	  3.370e-003 	             	
       100.153	             	  4.730e-001 	
       100.192	  3.360e-003 	             	
       100.217	             	  4.740e-001 	
       100.256	  3.350e-003 	             	
       100.281	             	  4.740e-001 	
       100.320	  3.320e-003 	             	
       100.345	             	  4.740e-001 	
       100.384	  3.290e-003 	             	
       100.409	             	  4.730e-001 	
       100.448	  3.300e-003 	             	
       100.473	             	  4.730e-001 	
       100.512	  3.290e-003 	             	
       100.537	             	  4.730e-001 	
       100.576	  3.320e-003 	             	
       100.601	             	  4.730e-001 	
       100.640	  3.310e-003 	             	
       100.665	             	  4.740e-001 	
       100.704	  3.320e-003 	             	
       100.729	             	  4.740e-001 	
       100.768	  3.340e-003 	             	
       100.793	             	  4.740e-001 	
       100.832	  3.370e-003 	             	
       100.857	             	  4.740e-001 	
       100.896	  3.410e-003 	             	
       100.953	             	  4.740e-001 	
       100.992	  3.450e-003 	             	
       101.017	             	  4.740e-001 	
       101.056	  3.450e-003 	             	
       101.081	             	  4.740e-001 	
       101.120	  3.460e-003 	             	
       101.145	             	  4.740e-001 	
       101.184	  3.480e-003 	             	
       101.209	             	  4.740e-001 	
       101.248	  3.440e-003 	             	
       101.273	             	  4.740e-001 	
       101.312	  3.440e-003 	             	
       101.337	             	  4.740e-001 	
       101.376	  2.710e-003 	             	
       101.401	             	  4.740e-001 	
       101.440	  3.770e-003 	             	
       101.465	             	  4.740e-001 	
       101.504	  2.290e-003 	             	
       101.529	             	  4.740e-001 	
       101.568	  1.000e-005 	             	
       101.593	             	  4.740e-001 	
       101.632	  1.000e-005 	             	
       101.657	             	  4.740e-001 	
       101.696	  1.000e-005 	             	
       101.753	             	  4.740e-001 	
       101.792	  1.000e-005 	             	
       101.817	             	  4.740e-001 	
       101.856	  1.000e-005 	             	
       101.881	             	  4.740e-001 	
       101.920	  1.000e-005 	             	
       101.945	             	  4.740e-001 	
       101.984	  1.000e-005 	             	
       102.009	             	  4.730e-001 	
       102.048	  2.000e-005 	             	
       102.073	             	  4.730e-001 	
       102.112	  3.000e-005 	             	
       102.137	             	  4.730e-001 	
       102.176	  4.000e-005 	             	
       102.201	             	  4.740e-001 	
       102.240	  5.000e-005 	             	
       102.265	             	  4.740e-001 	
       102.304	  6.000e-005 	             	
       102.329	             	  4.740e-001 	
       102.368	  6.000e-005 	             	
       102.393	             	  4.730e-001 	
       102.432	  4.000e-005 	             	
       102.457	             	  4.730e-001 	
       102.496	  3.000e-005 	             	
       102.553	             	  4.730e-001 	
       102.592	  3.000e-005 	             	
       102.617	             	  4.730e-001 	
       102.656	  3.000e-005 	             	
       102.681	             	  4.730e-001 	
       102.720	  2.000e-005 	             	
       102.745	             	  4.730e-001 	
       102.784	  2.000e-005 	             	
       102.809	             	  4.730e-001 	
       102.848	  2.000e-005 	             	
       102.873	             	  4.730e-001 	
       102.912	  2.000e-005 	             	
       102.936	             	  4.740e-001 	
       102.976	  2.000e-005 	             	
       103.001	             	  4.740e-001 	
       103.040	  2.000e-005 	             	
       103.065	             	  4.740e-001 	
       103.104	  6.000e-005 	             	
       103.129	             	  4.740e-001 	
       103.168	  4.170e-003 	             	
       103.193	             	  4.740e-001 	
       103.232	  2.949e-002 	             	
       103.257	             	  4.740e-001 	
       103.353	             	  4.740e-001 	
       103.417	             	  4.740e-001 	
       103.481	             	  4.730e-001 	
       103.520	  3.970e-002 	             	
       103.544	             	  4.730e-001 	
       103.584	  5.120e-002 	             	
       103.608	             	  4.730e-001 	
       103.648	  4.610e-002 	             	
       103.673	             	  4.730e-001 	
       103.712	  4.750e-002 	             	
       103.737	             	  4.730e-001 	
       103.776	  5.060e-002 	             	
       103.801	             	  4.740e-001 	
       103.840	  6.780e-002 	             	
       103.865	             	  4.740e-001 	
       103.904	  7.070e-002 	             	
       103.929	             	  4.740e-001 	
       103.968	  7.090e-002 	             	
       103.993	             	  4.740e-001 	
       104.032	  7.110e-002 	             	
       104.057	             	  4.740e-001 	
       104.096	  7.110e-002 	             	
       104.153	             	  4.740e-001 	
       104.192	  7.100e-002 	             	
       104.217	             	  4.730e-001 	
       104.256	  7.100e-002 	             	
       104.281	             	  4.730e-001 	
       104.320	  7.050e-002 	             	
       104.345	             	  4.730e-001 	
       104.384	  7.080e-002 	             	
       104.408	             	  4.730e-001 	
       104.448	  7.050e-002 	             	
       104.473	             	  4.730e-001 	
       104.512	  7.030e-002 	             	
       104.537	             	  4.730e-001 	
       104.576	  7.050e-002 	             	
       104.600	             	  4.730e-001 	
       104.640	  7.060e-002 	             	
       104.665	             	  4.730e-001 	
       104.704	  7.070e-002 	             	
       104.729	             	  4.730e-001 	
       104.768	  7.090e-002 	             	
       104.792	             	  4.730e-001 	
       104.832	  7.120e-002 	             	
       104.856	             	  4.730e-001 	
       104.896	  7.100e-002 	             	
       104.952	             	  4.730e-001 	
       104.992	  7.140e-002 	             	
       105.016	             	  4.740e-001 	
       105.056	  7.260e-002 	             	
       105.080	             	  4.740e-001 	
       105.120	  7.300e-002 	             	
       105.144	             	  4.740e-001 	
       105.184	  7.310e-002 	             	
       105.209	             	  4.730e-001 	
       105.248	  7.200e-002 	             	
       105.272	             	  4.730e-001 	
       105.312	  7.230e-002 	             	
       105.336	             	  4.730e-001 	
       105.376	  7.220e-002 	             	
       105.400	             	  4.730e-001 	
       105.440	  7.120e-002 	             	
       105.464	             	  4.730e-001 	
       105.504	  6.400e-002 	             	
       105.528	             	  4.730e-001 	
       105.568	  5.950e-002 	             	
       105.592	             	  4.730e-001 	
       105.632	  5.820e-002 	             	
       105.656	             	  4.740e-001 	
       105.696	  5.820e-002 	             	
       105.752	             	  4.740e-001 	
       105.792	  5.850e-002 	             	
       105.817	             	  4.740e-001 	
       105.856	  5.880e-002 	             	
       105.880	             	  4.740e-001 	
       105.920	  5.890e-002 	             	
       105.944	             	  4.740e-001 	
       105.984	  5.960e-002 	             	
       106.008	             	  4.740e-001 	
       106.048	  5.960e-002 	             	
       106.072	             	  4.740e-001 	
       106.112	  5.930e-002 	             	
       106.136	             	  4.740e-001 	
       106.176	  6.000e-002 	             	
       106.200	             	  4.740e-001 	
       106.240	  5.960e-002 	             	
       106.264	             	  4.740e-001 	
       106.304	  5.980e-002 	             	
       106.328	             	  4.740e-001 	
       106.368	  5.950e-002 	             	
       106.392	             	  4.740e-001 	
       106.432	  5.950e-002 	             	
       106.456	             	  4.740e-001 	
       106.496	  5.920e-002 	             	
       106.553	             	  4.740e-001 	
       106.560	  5.970e-002 	             	
       106.616	             	  4.740e-001 	
       106.656	  5.960e-002 	             	
       106.680	             	  4.740e-001 	
       106.720	  5.960e-002 	             	
       106.744	             	  4.740e-001 	
       106.784	  5.920e-002 	             	
       106.808	             	  4.730e-001 	
       106.848	  5.890e-002 	             	
       106.872	             	  4.730e-001 	
       106.912	  5.950e-002 	             	
       106.936	             	  4.730e-001 	
       106.976	  5.950e-002 	             	
       107.000	             	  4.730e-001 	
       107.040	  5.930e-002 	             	
       107.064	             	  4.740e-001 	
       107.104	  5.930e-002 	             	
       107.128	             	  4.740e-001 	
       107.168	  5.940e-002 	             	
       107.192	             	  4.740e-001 	
       107.232	  5.950e-002 	             	
       107.256	             	  4.740e-001 	
       107.296	  5.960e-002 	             	
       107.352	             	  4.740e-001 	
       107.360	  5.970e-002 	             	
       107.416	             	  4.740e-001 	
       107.456	  5.980e-002 	             	
       107.480	             	  4.740e-001 	
       107.520	  5.910e-002 	             	
       107.544	             	  4.730e-001 	
       107.584	  5.920e-002 	             	
       107.609	             	  4.730e-001 	
       107.648	  5.890e-002 	             	
       107.672	             	  4.730e-001 	
       107.712	  5.940e-002 	             	
       107.736	             	  4.730e-001 	
       107.776	  5.940e-002 	             	
       107.800	             	  4.730e-001 	
       107.840	  5.970e-002 	             	
       107.864	             	  4.730e-001 	
       107.904	  5.960e-002 	             	
       107.928	             	  4.740e-001 	
       107.968	  5.930e-002 	             	
       107.992	             	  4.730e-001 	
       108.032	  6.000e-002 	             	
       108.056	             	  4.730e-001 	
       108.096	  5.940e-002 	             	
       108.152	             	  4.730e-001 	
       108.160	  5.950e-002 	             	
       108.216	             	  4.730e-001 	
       108.256	  5.930e-002 	             	
       108.280	             	  4.730e-001 	
       108.320	  5.950e-002 	             	
       108.344	             	  4.740e-001 	
       108.384	  5.940e-002 	             	
       108.408	             	  4.740e-001 	
       108.448	  5.930e-002 	             	
       108.472	             	  4.740e-001 	
       108.511	  5.930e-002 	             	
       108.536	             	  4.740e-001 	
       108.576	  5.990e-002 	             	
       108.600	             	  4.740e-001 	
       108.640	  5.940e-002 	             	
       108.664	             	  4.740e-001 	
       108.704	  5.920e-002 	             	
       108.728	             	  4.740e-001 	
       108.768	  5.930e-002 	             	
       108.792	             	  4.740e-001 	
       108.832	  5.930e-002 	             	
       108.856	             	  4.740e-001 	
       108.895	  5.920e-002 	             	
       108.952	             	  4.740e-001 	
       108.960	  5.890e-002 	             	
       109.016	             	  4.740e-001 	
       109.055	  5.880e-002 	             	
       109.080	             	  4.740e-001 	
       109.120	  6.000e-002 	             	
       109.144	             	  4.740e-001 	
       109.183	  5.970e-002 	             	
       109.208	             	  4.740e-001 	
       109.248	  5.940e-002 	             	
       109.272	             	  4.740e-001 	
       109.312	  5.930e-002 	             	
       109.336	             	  4.740e-001 	
       109.375	  5.920e-002 	             	
       109.400	             	  4.740e-001 	
       109.440	  5.920e-002 	             	
       109.464	             	  4.740e-001 	
       109.503	  5.940e-002 	             	
       109.528	             	  4.740e-001 	
       109.567	  5.930e-002 	             	
       109.592	             	  4.740e-001 	
