;PC Software:StarLab Version 2.10 Build 25
;Logged:23/09/2022 at 15:56:59
;File Version:3
;Graph Type:Line
;Notes:                                                            

;Channel A:Nova II Photodiode PD300-3W-v1 (s/n:763106)  NN2.52 (s/n:767396)
;Channel B:Vega Thermopile 10A-V1.1 (s/n:693380)  VG2.44 (s/n:858327)

;Channel A:Details
;Name:PD300-3W-v1
;Graph Color:RGB(0,102,255)
;Units:W
;Settings:Measuring:Power
;Settings:Wavelength:1064
;Settings:Range:AUTO
;Settings:Filter:IN

;Channel B:Details
;Name:10A-V1.1
;Graph Color:RGB(154,0,0)
;Units:W
;Settings:Measuring:Power
;Settings:Laser:.8-6
;Settings:Range:AUTO
;--------------------


;First Pulse Arrived : 23/09/2022 at 15:56:59.746000
  Timestamp   	  Channel A  	  Channel B  	
         0.000	  8.710e-002 	             	
         0.023	             	  4.228e-001 	
         0.064	  8.750e-002 	             	
         0.087	             	  4.228e-001 	
         0.128	  8.730e-002 	             	
         0.151	             	  4.227e-001 	
         0.192	  8.760e-002 	             	
         0.215	             	  4.227e-001 	
         0.256	  8.760e-002 	             	
         0.279	             	  4.227e-001 	
         0.343	             	  4.227e-001 	
         0.352	  8.760e-002 	             	
         0.407	             	  4.227e-001 	
         0.416	  8.750e-002 	             	
         0.471	             	  4.227e-001 	
         0.480	  8.730e-002 	             	
         0.535	             	  4.227e-001 	
         0.544	  8.750e-002 	             	
         0.608	  8.730e-002 	             	
         0.631	             	  4.228e-001 	
         0.672	  8.740e-002 	             	
         0.695	             	  4.228e-001 	
         0.736	  8.750e-002 	             	
         0.759	             	  4.229e-001 	
         0.800	  8.770e-002 	             	
         0.823	             	  4.229e-001 	
         0.864	  8.740e-002 	             	
         0.887	             	  4.229e-001 	
         0.928	  8.720e-002 	             	
         0.951	             	  4.229e-001 	
         0.992	  8.780e-002 	             	
         1.015	             	  4.229e-001 	
         1.056	  8.650e-002 	             	
         1.079	             	  4.229e-001 	
         1.143	             	  4.230e-001 	
         1.152	  8.530e-002 	             	
         1.207	             	  4.230e-001 	
         1.216	  8.460e-002 	             	
         1.271	             	  4.230e-001 	
         1.280	  8.390e-002 	             	
         1.335	             	  4.229e-001 	
         1.344	  8.390e-002 	             	
         1.399	             	  4.229e-001 	
         1.408	  8.400e-002 	             	
         1.472	  8.410e-002 	             	
         1.495	             	  4.229e-001 	
         1.536	  8.410e-002 	             	
         1.559	             	  4.228e-001 	
         1.600	  8.390e-002 	             	
         1.623	             	  4.228e-001 	
         1.664	  8.430e-002 	             	
         1.687	             	  4.228e-001 	
         1.728	  8.420e-002 	             	
         1.751	             	  4.227e-001 	
         1.792	  8.420e-002 	             	
         1.815	             	  4.227e-001 	
         1.856	  8.440e-002 	             	
         1.879	             	  4.226e-001 	
         1.943	             	  4.226e-001 	
         1.952	  8.460e-002 	             	
         2.007	             	  4.226e-001 	
         2.016	  8.430e-002 	             	
         2.071	             	  4.227e-001 	
         2.080	  8.440e-002 	             	
         2.135	             	  4.227e-001 	
         2.144	  8.460e-002 	             	
         2.199	             	  4.228e-001 	
         2.208	  8.430e-002 	             	
         2.272	  8.450e-002 	             	
         2.295	             	  4.229e-001 	
         2.336	  8.460e-002 	             	
         2.359	             	  4.230e-001 	
         2.400	  8.470e-002 	             	
         2.423	             	  4.230e-001 	
         2.464	  8.430e-002 	             	
         2.487	             	  4.231e-001 	
         2.528	  8.480e-002 	             	
         2.551	             	  4.231e-001 	
         2.592	  8.520e-002 	             	
         2.615	             	  4.231e-001 	
         2.656	  8.490e-002 	             	
         2.679	             	  4.230e-001 	
         2.743	             	  4.229e-001 	
         2.752	  8.520e-002 	             	
         2.807	             	  4.228e-001 	
         2.816	  8.520e-002 	             	
         2.871	             	  4.227e-001 	
         2.880	  8.480e-002 	             	
         2.935	             	  4.226e-001 	
         2.944	  8.500e-002 	             	
         2.999	             	  4.226e-001 	
         3.008	  8.520e-002 	             	
         3.072	  8.520e-002 	             	
         3.095	             	  4.226e-001 	
         3.136	  8.610e-002 	             	
         3.159	             	  4.226e-001 	
         3.200	  8.670e-002 	             	
         3.223	             	  4.226e-001 	
         3.264	  8.650e-002 	             	
         3.287	             	  4.226e-001 	
         3.328	  8.690e-002 	             	
         3.351	             	  4.226e-001 	
         3.392	  8.680e-002 	             	
         3.415	             	  4.226e-001 	
         3.456	  8.690e-002 	             	
         3.479	             	  4.226e-001 	
         3.543	             	  4.226e-001 	
         3.552	  8.680e-002 	             	
         3.607	             	  4.227e-001 	
         3.616	  8.710e-002 	             	
         3.671	             	  4.228e-001 	
         3.680	  8.720e-002 	             	
         3.735	             	  4.228e-001 	
         3.744	  8.720e-002 	             	
         3.799	             	  4.229e-001 	
         3.808	  8.700e-002 	             	
         3.872	  8.710e-002 	             	
         3.895	             	  4.230e-001 	
         3.936	  8.660e-002 	             	
         3.959	             	  4.229e-001 	
         4.000	  8.630e-002 	             	
         4.023	             	  4.229e-001 	
         4.064	  8.560e-002 	             	
         4.087	             	  4.228e-001 	
         4.128	  8.520e-002 	             	
         4.151	             	  4.228e-001 	
         4.192	  8.490e-002 	             	
         4.215	             	  4.228e-001 	
         4.256	  8.450e-002 	             	
         4.279	             	  4.228e-001 	
         4.343	             	  4.228e-001 	
         4.352	  8.490e-002 	             	
         4.407	             	  4.228e-001 	
         4.416	  8.460e-002 	             	
         4.471	             	  4.228e-001 	
         4.480	  8.400e-002 	             	
         4.535	             	  4.227e-001 	
         4.544	  8.380e-002 	             	
         4.599	             	  4.227e-001 	
         4.608	  8.310e-002 	             	
         4.672	  8.310e-002 	             	
         4.695	             	  4.226e-001 	
         4.736	  8.320e-002 	             	
         4.759	             	  4.226e-001 	
         4.800	  8.270e-002 	             	
         4.823	             	  4.226e-001 	
         4.864	  8.250e-002 	             	
         4.887	             	  4.227e-001 	
         4.928	  8.260e-002 	             	
         4.951	             	  4.227e-001 	
         4.992	  8.300e-002 	             	
         5.015	             	  4.227e-001 	
         5.056	  8.300e-002 	             	
         5.079	             	  4.226e-001 	
         5.143	             	  4.226e-001 	
         5.152	  8.340e-002 	             	
         5.207	             	  4.225e-001 	
         5.216	  8.340e-002 	             	
         5.271	             	  4.225e-001 	
         5.280	  8.360e-002 	             	
         5.335	             	  4.225e-001 	
         5.344	  8.350e-002 	             	
         5.399	             	  4.225e-001 	
         5.408	  8.370e-002 	             	
         5.472	  8.430e-002 	             	
         5.495	             	  4.226e-001 	
         5.536	  8.490e-002 	             	
         5.559	             	  4.227e-001 	
         5.600	  8.480e-002 	             	
         5.623	             	  4.227e-001 	
         5.664	  8.540e-002 	             	
         5.687	             	  4.228e-001 	
         5.728	  8.580e-002 	             	
         5.751	             	  4.228e-001 	
         5.792	  8.600e-002 	             	
         5.815	             	  4.227e-001 	
         5.856	  8.600e-002 	             	
         5.879	             	  4.227e-001 	
         5.943	             	  4.227e-001 	
         5.952	  8.620e-002 	             	
         6.007	             	  4.227e-001 	
         6.016	  8.610e-002 	             	
         6.071	             	  4.226e-001 	
         6.080	  8.670e-002 	             	
         6.135	             	  4.227e-001 	
         6.144	  8.680e-002 	             	
         6.199	             	  4.227e-001 	
         6.208	  8.610e-002 	             	
         6.272	  8.680e-002 	             	
         6.295	             	  4.227e-001 	
         6.336	  8.700e-002 	             	
         6.359	             	  4.227e-001 	
         6.400	  8.740e-002 	             	
         6.423	             	  4.228e-001 	
         6.464	  8.790e-002 	             	
         6.487	             	  4.228e-001 	
         6.528	  8.770e-002 	             	
         6.551	             	  4.228e-001 	
         6.592	  8.820e-002 	             	
         6.615	             	  4.228e-001 	
         6.656	  8.840e-002 	             	
         6.679	             	  4.227e-001 	
         6.743	             	  4.226e-001 	
         6.752	  8.860e-002 	             	
         6.807	             	  4.226e-001 	
         6.816	  8.850e-002 	             	
         6.871	             	  4.226e-001 	
         6.880	  8.870e-002 	             	
         6.935	             	  4.226e-001 	
         6.944	  8.820e-002 	             	
         6.999	             	  4.226e-001 	
         7.008	  8.850e-002 	             	
         7.072	  8.820e-002 	             	
         7.095	             	  4.226e-001 	
         7.136	  8.790e-002 	             	
         7.159	             	  4.226e-001 	
         7.200	  8.790e-002 	             	
         7.223	             	  4.226e-001 	
         7.264	  8.820e-002 	             	
         7.287	             	  4.225e-001 	
         7.328	  8.770e-002 	             	
         7.351	             	  4.225e-001 	
         7.392	  8.780e-002 	             	
         7.415	             	  4.225e-001 	
         7.456	  8.780e-002 	             	
         7.479	             	  4.225e-001 	
         7.543	             	  4.224e-001 	
         7.552	  8.740e-002 	             	
         7.607	             	  4.225e-001 	
         7.616	  8.750e-002 	             	
         7.671	             	  4.225e-001 	
         7.680	  8.710e-002 	             	
         7.735	             	  4.226e-001 	
         7.744	  8.660e-002 	             	
         7.799	             	  4.226e-001 	
         7.808	  8.630e-002 	             	
         7.872	  8.640e-002 	             	
         7.895	             	  4.227e-001 	
         7.936	  8.600e-002 	             	
         7.958	             	  4.227e-001 	
         8.000	  8.550e-002 	             	
         8.023	             	  4.228e-001 	
         8.064	  8.400e-002 	             	
         8.086	             	  4.228e-001 	
         8.128	  8.380e-002 	             	
         8.151	             	  4.228e-001 	
         8.192	  8.350e-002 	             	
         8.214	             	  4.228e-001 	
         8.256	  8.360e-002 	             	
         8.279	             	  4.228e-001 	
         8.343	             	  4.227e-001 	
         8.352	  8.300e-002 	             	
         8.407	             	  4.227e-001 	
         8.416	  8.300e-002 	             	
         8.471	             	  4.227e-001 	
         8.480	  8.310e-002 	             	
         8.535	             	  4.227e-001 	
         8.544	  8.320e-002 	             	
         8.598	             	  4.227e-001 	
         8.608	  8.280e-002 	             	
         8.672	  8.250e-002 	             	
         8.695	             	  4.227e-001 	
         8.736	  8.260e-002 	             	
         8.759	             	  4.227e-001 	
         8.800	  8.210e-002 	             	
         8.823	             	  4.227e-001 	
         8.864	  8.220e-002 	             	
         8.887	             	  4.227e-001 	
         8.928	  8.230e-002 	             	
         8.950	             	  4.227e-001 	
         8.992	  8.240e-002 	             	
         9.015	             	  4.228e-001 	
         9.056	  8.240e-002 	             	
         9.079	             	  4.228e-001 	
         9.143	             	  4.227e-001 	
         9.152	  8.280e-002 	             	
         9.206	             	  4.227e-001 	
         9.216	  8.240e-002 	             	
         9.270	             	  4.227e-001 	
         9.280	  8.250e-002 	             	
         9.334	             	  4.227e-001 	
         9.344	  8.220e-002 	             	
         9.398	             	  4.226e-001 	
         9.408	  8.220e-002 	             	
         9.472	  8.220e-002 	             	
         9.494	             	  4.226e-001 	
         9.536	  8.260e-002 	             	
         9.558	             	  4.227e-001 	
         9.600	  8.230e-002 	             	
         9.622	             	  4.227e-001 	
         9.664	  8.260e-002 	             	
         9.687	             	  4.227e-001 	
         9.728	  8.290e-002 	             	
         9.750	             	  4.228e-001 	
         9.792	  8.300e-002 	             	
         9.815	             	  4.228e-001 	
         9.856	  8.310e-002 	             	
         9.878	             	  4.228e-001 	
         9.942	             	  4.228e-001 	
         9.952	  8.270e-002 	             	
        10.006	             	  4.228e-001 	
        10.016	  8.320e-002 	             	
        10.070	             	  4.229e-001 	
        10.080	  8.360e-002 	             	
        10.134	             	  4.229e-001 	
        10.144	  8.450e-002 	             	
        10.198	             	  4.228e-001 	
        10.208	  8.420e-002 	             	
        10.272	  8.440e-002 	             	
        10.294	             	  4.228e-001 	
        10.336	  8.460e-002 	             	
        10.359	             	  4.228e-001 	
        10.400	  8.490e-002 	             	
        10.422	             	  4.228e-001 	
        10.464	  8.550e-002 	             	
        10.486	             	  4.228e-001 	
        10.528	  8.610e-002 	             	
        10.550	             	  4.227e-001 	
        10.592	  8.610e-002 	             	
        10.614	             	  4.228e-001 	
        10.656	  8.720e-002 	             	
        10.678	             	  4.227e-001 	
        10.742	             	  4.226e-001 	
        10.752	  8.710e-002 	             	
        10.806	             	  4.226e-001 	
        10.816	  8.800e-002 	             	
        10.871	             	  4.225e-001 	
        10.880	  8.850e-002 	             	
        10.934	             	  4.225e-001 	
        10.944	  8.840e-002 	             	
        10.998	             	  4.226e-001 	
        11.008	  8.880e-002 	             	
        11.072	  8.870e-002 	             	
        11.095	             	  4.226e-001 	
        11.136	  8.960e-002 	             	
        11.158	             	  4.226e-001 	
        11.200	  8.940e-002 	             	
        11.222	             	  4.226e-001 	
        11.264	  8.930e-002 	             	
        11.286	             	  4.226e-001 	
        11.328	  8.930e-002 	             	
        11.350	             	  4.227e-001 	
        11.392	  8.970e-002 	             	
        11.414	             	  4.227e-001 	
        11.456	  8.930e-002 	             	
        11.478	             	  4.227e-001 	
        11.542	             	  4.227e-001 	
        11.552	  8.960e-002 	             	
        11.606	             	  4.228e-001 	
        11.616	  8.990e-002 	             	
        11.670	             	  4.228e-001 	
        11.680	  9.000e-002 	             	
        11.734	             	  4.228e-001 	
        11.744	  9.010e-002 	             	
        11.798	             	  4.228e-001 	
        11.808	  9.070e-002 	             	
        11.872	  9.050e-002 	             	
        11.894	             	  4.228e-001 	
        11.936	  9.100e-002 	             	
        11.958	             	  4.228e-001 	
        12.000	  9.110e-002 	             	
        12.022	             	  4.227e-001 	
        12.064	  9.130e-002 	             	
        12.086	             	  4.226e-001 	
        12.128	  9.150e-002 	             	
        12.150	             	  4.226e-001 	
        12.192	  9.160e-002 	             	
        12.214	             	  4.226e-001 	
        12.256	  9.160e-002 	             	
        12.278	             	  4.227e-001 	
        12.320	  9.130e-002 	             	
        12.342	             	  4.228e-001 	
        12.406	             	  4.228e-001 	
        12.416	  9.170e-002 	             	
        12.470	             	  4.228e-001 	
        12.480	  9.210e-002 	             	
        12.534	             	  4.228e-001 	
        12.544	  9.200e-002 	             	
        12.598	             	  4.228e-001 	
        12.608	  9.180e-002 	             	
        12.672	  9.100e-002 	             	
        12.694	             	  4.228e-001 	
        12.736	  9.070e-002 	             	
        12.758	             	  4.229e-001 	
        12.800	  9.000e-002 	             	
        12.822	             	  4.228e-001 	
        12.864	  9.030e-002 	             	
        12.886	             	  4.228e-001 	
        12.928	  8.990e-002 	             	
        12.950	             	  4.228e-001 	
        12.992	  8.960e-002 	             	
        13.014	             	  4.227e-001 	
        13.056	  8.940e-002 	             	
        13.078	             	  4.227e-001 	
        13.142	             	  4.227e-001 	
        13.152	  8.900e-002 	             	
        13.206	             	  4.227e-001 	
        13.216	  8.840e-002 	             	
        13.270	             	  4.226e-001 	
        13.280	  8.730e-002 	             	
        13.334	             	  4.227e-001 	
        13.344	  8.700e-002 	             	
        13.398	             	  4.227e-001 	
        13.408	  8.690e-002 	             	
        13.472	  8.650e-002 	             	
        13.494	             	  4.227e-001 	
        13.536	  8.590e-002 	             	
        13.558	             	  4.227e-001 	
        13.600	  8.490e-002 	             	
        13.622	             	  4.227e-001 	
        13.664	  8.440e-002 	             	
        13.686	             	  4.227e-001 	
        13.728	  8.340e-002 	             	
        13.750	             	  4.227e-001 	
        13.792	  8.260e-002 	             	
        13.814	             	  4.227e-001 	
        13.856	  8.270e-002 	             	
        13.878	             	  4.227e-001 	
        13.920	  8.250e-002 	             	
        13.942	             	  4.226e-001 	
        14.006	             	  4.226e-001 	
        14.016	  8.270e-002 	             	
        14.070	             	  4.226e-001 	
        14.079	  8.200e-002 	             	
        14.134	             	  4.226e-001 	
        14.143	  8.220e-002 	             	
        14.198	             	  4.226e-001 	
        14.207	  8.210e-002 	             	
        14.271	  8.210e-002 	             	
        14.294	             	  4.226e-001 	
        14.335	  8.220e-002 	             	
        14.358	             	  4.226e-001 	
        14.399	  8.220e-002 	             	
        14.422	             	  4.226e-001 	
        14.463	  8.240e-002 	             	
        14.486	             	  4.227e-001 	
        14.527	  8.230e-002 	             	
        14.550	             	  4.227e-001 	
        14.591	  8.230e-002 	             	
        14.614	             	  4.228e-001 	
        14.655	  8.240e-002 	             	
        14.678	             	  4.228e-001 	
        14.719	  8.250e-002 	             	
        14.742	             	  4.228e-001 	
        14.806	             	  4.228e-001 	
        14.815	  8.270e-002 	             	
        14.870	             	  4.228e-001 	
        14.879	  8.270e-002 	             	
        14.934	             	  4.228e-001 	
        14.943	  8.310e-002 	             	
        14.998	             	  4.228e-001 	
        15.008	  8.330e-002 	             	
        15.071	  8.330e-002 	             	
        15.094	             	  4.228e-001 	
        15.135	  8.360e-002 	             	
        15.158	             	  4.229e-001 	
        15.199	  8.370e-002 	             	
        15.222	             	  4.229e-001 	
        15.263	  8.450e-002 	             	
        15.286	             	  4.230e-001 	
        15.327	  8.460e-002 	             	
        15.350	             	  4.230e-001 	
        15.391	  8.530e-002 	             	
        15.414	             	  4.230e-001 	
        15.455	  8.560e-002 	             	
        15.478	             	  4.230e-001 	
        15.519	  8.650e-002 	             	
        15.542	             	  4.230e-001 	
        15.606	             	  4.229e-001 	
        15.615	  8.690e-002 	             	
        15.670	             	  4.229e-001 	
        15.679	  8.780e-002 	             	
        15.734	             	  4.229e-001 	
        15.743	  8.820e-002 	             	
        15.798	             	  4.229e-001 	
        15.807	  8.860e-002 	             	
        15.862	             	  4.230e-001 	
        15.872	  8.880e-002 	             	
        15.935	  8.920e-002 	             	
        15.958	             	  4.230e-001 	
        15.999	  8.910e-002 	             	
        16.022	             	  4.230e-001 	
        16.063	  8.900e-002 	             	
        16.086	             	  4.230e-001 	
        16.127	  8.960e-002 	             	
        16.150	             	  4.230e-001 	
        16.191	  9.020e-002 	             	
        16.214	             	  4.230e-001 	
        16.255	  8.990e-002 	             	
        16.278	             	  4.230e-001 	
        16.319	  9.040e-002 	             	
        16.342	             	  4.230e-001 	
        16.406	             	  4.229e-001 	
        16.415	  9.070e-002 	             	
        16.470	             	  4.229e-001 	
        16.479	  9.050e-002 	             	
        16.534	             	  4.229e-001 	
        16.543	  9.080e-002 	             	
        16.599	             	  4.228e-001 	
        16.608	  9.150e-002 	             	
        16.663	             	  4.228e-001 	
        16.672	  9.160e-002 	             	
        16.736	  9.160e-002 	             	
        16.759	             	  4.228e-001 	
        16.800	  9.190e-002 	             	
        16.823	             	  4.228e-001 	
        16.864	  9.200e-002 	             	
        16.887	             	  4.228e-001 	
        16.928	  9.230e-002 	             	
        16.951	             	  4.228e-001 	
        16.992	  9.230e-002 	             	
        17.015	             	  4.228e-001 	
        17.056	  9.220e-002 	             	
        17.079	             	  4.228e-001 	
        17.120	  9.310e-002 	             	
        17.143	             	  4.228e-001 	
        17.207	             	  4.228e-001 	
        17.216	  9.310e-002 	             	
        17.271	             	  4.228e-001 	
        17.280	  9.310e-002 	             	
        17.335	             	  4.228e-001 	
        17.344	  9.340e-002 	             	
        17.399	             	  4.228e-001 	
        17.408	  9.360e-002 	             	
        17.463	             	  4.228e-001 	
        17.472	  9.350e-002 	             	
        17.536	  9.340e-002 	             	
        17.559	             	  4.229e-001 	
        17.600	  9.370e-002 	             	
        17.623	             	  4.229e-001 	
        17.664	  9.370e-002 	             	
        17.687	             	  4.229e-001 	
        17.728	  9.400e-002 	             	
        17.751	             	  4.230e-001 	
        17.792	  9.410e-002 	             	
        17.815	             	  4.230e-001 	
        17.856	  9.420e-002 	             	
        17.879	             	  4.230e-001 	
        17.920	  9.380e-002 	             	
        17.943	             	  4.230e-001 	
        18.007	             	  4.230e-001 	
        18.016	  9.340e-002 	             	
        18.071	             	  4.229e-001 	
        18.080	  9.290e-002 	             	
        18.135	             	  4.229e-001 	
        18.144	  9.310e-002 	             	
        18.199	             	  4.229e-001 	
        18.208	  9.300e-002 	             	
        18.263	             	  4.229e-001 	
        18.272	  9.290e-002 	             	
        18.336	  9.210e-002 	             	
        18.359	             	  4.229e-001 	
        18.400	  9.200e-002 	             	
        18.423	             	  4.228e-001 	
        18.464	  9.160e-002 	             	
        18.487	             	  4.227e-001 	
        18.528	  9.110e-002 	             	
        18.551	             	  4.228e-001 	
        18.592	  9.010e-002 	             	
        18.615	             	  4.228e-001 	
        18.656	  8.730e-002 	             	
        18.679	             	  4.228e-001 	
        18.720	  8.660e-002 	             	
        18.743	             	  4.229e-001 	
        18.807	             	  4.229e-001 	
        18.816	  8.600e-002 	             	
        18.871	             	  4.229e-001 	
        18.880	  8.560e-002 	             	
        18.935	             	  4.229e-001 	
        18.944	  8.550e-002 	             	
        18.999	             	  4.229e-001 	
        19.008	  8.490e-002 	             	
        19.063	             	  4.229e-001 	
        19.072	  8.480e-002 	             	
        19.136	  8.460e-002 	             	
        19.159	             	  4.229e-001 	
        19.200	  8.410e-002 	             	
        19.223	             	  4.229e-001 	
        19.264	  8.370e-002 	             	
        19.287	             	  4.229e-001 	
        19.328	  8.390e-002 	             	
        19.351	             	  4.229e-001 	
        19.392	  8.380e-002 	             	
        19.415	             	  4.229e-001 	
        19.456	  8.350e-002 	             	
        19.479	             	  4.228e-001 	
        19.520	  8.270e-002 	             	
        19.543	             	  4.228e-001 	
        19.607	             	  4.229e-001 	
        19.616	  8.160e-002 	             	
        19.671	             	  4.230e-001 	
        19.680	  8.160e-002 	             	
        19.735	             	  4.230e-001 	
        19.744	  8.140e-002 	             	
        19.799	             	  4.230e-001 	
        19.809	  8.140e-002 	             	
        19.863	             	  4.230e-001 	
        19.872	  8.160e-002 	             	
        19.936	  8.200e-002 	             	
        19.959	             	  4.230e-001 	
        20.000	  8.210e-002 	             	
        20.023	             	  4.230e-001 	
        20.064	  8.260e-002 	             	
        20.087	             	  4.230e-001 	
        20.128	  8.280e-002 	             	
        20.151	             	  4.230e-001 	
        20.192	  8.340e-002 	             	
        20.215	             	  4.230e-001 	
        20.256	  8.370e-002 	             	
        20.279	             	  4.231e-001 	
        20.320	  8.430e-002 	             	
        20.343	             	  4.231e-001 	
        20.407	             	  4.231e-001 	
        20.416	  8.490e-002 	             	
        20.471	             	  4.231e-001 	
        20.480	  8.540e-002 	             	
        20.535	             	  4.230e-001 	
        20.544	  8.630e-002 	             	
        20.599	             	  4.230e-001 	
        20.608	  8.670e-002 	             	
        20.663	             	  4.230e-001 	
        20.672	  8.640e-002 	             	
        20.736	  8.630e-002 	             	
        20.759	             	  4.231e-001 	
        20.800	  8.700e-002 	             	
        20.823	             	  4.232e-001 	
        20.864	  8.810e-002 	             	
        20.887	             	  4.232e-001 	
        20.928	  8.890e-002 	             	
        20.951	             	  4.233e-001 	
        20.992	  8.960e-002 	             	
        21.015	             	  4.233e-001 	
        21.056	  9.000e-002 	             	
        21.079	             	  4.232e-001 	
        21.120	  9.100e-002 	             	
        21.143	             	  4.231e-001 	
        21.207	             	  4.230e-001 	
        21.216	  9.130e-002 	             	
        21.271	             	  4.229e-001 	
        21.280	  9.180e-002 	             	
        21.335	             	  4.229e-001 	
        21.344	  9.280e-002 	             	
        21.399	             	  4.228e-001 	
        21.408	  9.360e-002 	             	
        21.463	             	  4.228e-001 	
        21.472	  9.370e-002 	             	
        21.536	  9.410e-002 	             	
        21.559	             	  4.228e-001 	
        21.600	  9.470e-002 	             	
        21.623	             	  4.229e-001 	
        21.664	  9.470e-002 	             	
        21.687	             	  4.229e-001 	
        21.728	  9.470e-002 	             	
        21.751	             	  4.229e-001 	
        21.792	  9.490e-002 	             	
        21.815	             	  4.229e-001 	
        21.856	  9.470e-002 	             	
        21.879	             	  4.230e-001 	
        21.920	  9.480e-002 	             	
        21.943	             	  4.230e-001 	
        22.007	             	  4.230e-001 	
        22.016	  9.520e-002 	             	
        22.071	             	  4.231e-001 	
        22.080	  9.470e-002 	             	
        22.135	             	  4.231e-001 	
        22.144	  9.440e-002 	             	
        22.199	             	  4.231e-001 	
        22.208	  9.530e-002 	             	
        22.263	             	  4.231e-001 	
        22.272	  9.590e-002 	             	
        22.336	  9.610e-002 	             	
        22.359	             	  4.231e-001 	
        22.400	  9.640e-002 	             	
        22.423	             	  4.232e-001 	
        22.464	  9.600e-002 	             	
        22.487	             	  4.232e-001 	
        22.528	  9.650e-002 	             	
        22.551	             	  4.231e-001 	
        22.592	  9.680e-002 	             	
        22.615	             	  4.230e-001 	
        22.656	  9.710e-002 	             	
        22.679	             	  4.230e-001 	
        22.720	  9.760e-002 	             	
        22.743	             	  4.229e-001 	
        22.807	             	  4.228e-001 	
        22.816	  9.830e-002 	             	
        22.871	             	  4.227e-001 	
        22.880	  9.760e-002 	             	
        22.935	             	  4.226e-001 	
        22.944	  9.740e-002 	             	
        22.999	             	  4.226e-001 	
        23.008	  9.740e-002 	             	
        23.063	             	  4.225e-001 	
        23.072	  9.770e-002 	             	
        23.136	  9.720e-002 	             	
        23.159	             	  4.226e-001 	
        23.200	  9.700e-002 	             	
        23.223	             	  4.226e-001 	
        23.264	  9.700e-002 	             	
        23.287	             	  4.227e-001 	
        23.328	  9.650e-002 	             	
        23.351	             	  4.226e-001 	
        23.392	  9.480e-002 	             	
        23.415	             	  4.226e-001 	
        23.456	  9.430e-002 	             	
        23.479	             	  4.226e-001 	
        23.520	  9.390e-002 	             	
        23.543	             	  4.226e-001 	
        23.607	             	  4.226e-001 	
        23.616	  9.360e-002 	             	
        23.671	             	  4.225e-001 	
        23.680	  9.350e-002 	             	
        23.735	             	  4.224e-001 	
        23.744	  9.260e-002 	             	
        23.799	             	  4.224e-001 	
        23.808	  9.240e-002 	             	
        23.863	             	  4.225e-001 	
        23.872	  9.100e-002 	             	
        23.936	  9.000e-002 	             	
        23.959	             	  4.225e-001 	
        24.000	  8.900e-002 	             	
        24.023	             	  4.227e-001 	
        24.064	  8.830e-002 	             	
        24.087	             	  4.227e-001 	
        24.128	  8.800e-002 	             	
        24.151	             	  4.228e-001 	
        24.192	  8.680e-002 	             	
        24.215	             	  4.228e-001 	
        24.256	  8.400e-002 	             	
        24.279	             	  4.227e-001 	
        24.320	  8.360e-002 	             	
        24.343	             	  4.227e-001 	
        24.407	             	  4.227e-001 	
        24.416	  8.310e-002 	             	
        24.471	             	  4.227e-001 	
        24.480	  8.330e-002 	             	
        24.535	             	  4.227e-001 	
        24.544	  8.280e-002 	             	
        24.599	             	  4.226e-001 	
        24.608	  8.280e-002 	             	
        24.663	             	  4.226e-001 	
        24.672	  8.270e-002 	             	
        24.736	  8.270e-002 	             	
        24.759	             	  4.227e-001 	
        24.800	  8.330e-002 	             	
        24.823	             	  4.227e-001 	
        24.864	  8.250e-002 	             	
        24.887	             	  4.227e-001 	
        24.928	  8.280e-002 	             	
        24.951	             	  4.228e-001 	
        24.992	  8.300e-002 	             	
        25.015	             	  4.228e-001 	
        25.056	  8.240e-002 	             	
        25.079	             	  4.227e-001 	
        25.120	  8.220e-002 	             	
        25.143	             	  4.227e-001 	
        25.184	  8.290e-002 	             	
        25.207	             	  4.228e-001 	
        25.271	             	  4.228e-001 	
        25.280	  8.260e-002 	             	
        25.335	             	  4.229e-001 	
        25.344	  8.240e-002 	             	
        25.399	             	  4.230e-001 	
        25.408	  8.140e-002 	             	
        25.463	             	  4.230e-001 	
        25.472	  8.150e-002 	             	
        25.536	  8.170e-002 	             	
        25.559	             	  4.230e-001 	
        25.600	  8.260e-002 	             	
        25.623	             	  4.229e-001 	
        25.664	  8.330e-002 	             	
        25.687	             	  4.228e-001 	
        25.728	  8.440e-002 	             	
        25.751	             	  4.228e-001 	
        25.792	  8.500e-002 	             	
        25.815	             	  4.227e-001 	
        25.856	  8.590e-002 	             	
        25.879	             	  4.227e-001 	
        25.920	  8.640e-002 	             	
        25.943	             	  4.226e-001 	
        25.984	  8.770e-002 	             	
        26.006	             	  4.225e-001 	
        26.071	             	  4.226e-001 	
        26.080	  8.870e-002 	             	
        26.135	             	  4.226e-001 	
        26.144	  8.980e-002 	             	
        26.198	             	  4.227e-001 	
        26.208	  9.060e-002 	             	
        26.263	             	  4.228e-001 	
        26.272	  9.100e-002 	             	
        26.336	  9.210e-002 	             	
        26.359	             	  4.229e-001 	
        26.400	  9.230e-002 	             	
        26.422	             	  4.229e-001 	
        26.464	  9.340e-002 	             	
        26.487	             	  4.230e-001 	
        26.528	  9.380e-002 	             	
        26.550	             	  4.229e-001 	
        26.592	  9.280e-002 	             	
        26.615	             	  4.228e-001 	
        26.656	  9.360e-002 	             	
        26.678	             	  4.228e-001 	
        26.720	  9.420e-002 	             	
        26.742	             	  4.228e-001 	
        26.784	  9.450e-002 	             	
        26.807	             	  4.228e-001 	
        26.871	             	  4.229e-001 	
        26.880	  9.470e-002 	             	
        26.935	             	  4.229e-001 	
        26.944	  9.510e-002 	             	
        26.998	             	  4.230e-001 	
        27.008	  9.480e-002 	             	
        27.063	             	  4.230e-001 	
        27.072	  9.530e-002 	             	
        27.136	  9.560e-002 	             	
        27.158	             	  4.229e-001 	
        27.200	  9.610e-002 	             	
        27.222	             	  4.229e-001 	
        27.264	  9.610e-002 	             	
        27.286	             	  4.229e-001 	
        27.328	  9.600e-002 	             	
        27.350	             	  4.229e-001 	
        27.392	  9.630e-002 	             	
        27.414	             	  4.230e-001 	
        27.456	  9.650e-002 	             	
        27.478	             	  4.230e-001 	
        27.520	  9.620e-002 	             	
        27.542	             	  4.231e-001 	
        27.584	  9.690e-002 	             	
        27.607	             	  4.231e-001 	
        27.670	             	  4.230e-001 	
        27.680	  9.700e-002 	             	
        27.734	             	  4.230e-001 	
        27.744	  9.710e-002 	             	
        27.798	             	  4.228e-001 	
        27.808	  9.720e-002 	             	
        27.862	             	  4.227e-001 	
        27.872	  9.760e-002 	             	
        27.936	  9.770e-002 	             	
        27.959	             	  4.227e-001 	
        28.000	  9.790e-002 	             	
        28.022	             	  4.227e-001 	
        28.064	  9.900e-002 	             	
        28.086	             	  4.227e-001 	
        28.128	  9.950e-002 	             	
        28.150	             	  4.227e-001 	
        28.192	  9.950e-002 	             	
        28.214	             	  4.228e-001 	
        28.256	  9.920e-002 	             	
        28.278	             	  4.229e-001 	
        28.320	  9.890e-002 	             	
        28.342	             	  4.229e-001 	
        28.384	  9.940e-002 	             	
        28.406	             	  4.229e-001 	
        28.470	             	  4.229e-001 	
        28.480	  9.920e-002 	             	
        28.534	             	  4.230e-001 	
        28.544	  9.890e-002 	             	
        28.598	             	  4.230e-001 	
        28.608	  9.910e-002 	             	
        28.662	             	  4.231e-001 	
        28.672	  9.770e-002 	             	
        28.726	             	  4.231e-001 	
        28.736	  9.630e-002 	             	
        28.800	  9.600e-002 	             	
        28.822	             	  4.231e-001 	
        28.864	  9.520e-002 	             	
        28.886	             	  4.231e-001 	
        28.928	  9.460e-002 	             	
        28.950	             	  4.230e-001 	
        28.992	  9.460e-002 	             	
        29.014	             	  4.230e-001 	
        29.056	  9.380e-002 	             	
        29.078	             	  4.230e-001 	
        29.120	  9.340e-002 	             	
        29.142	             	  4.230e-001 	
        29.184	  9.290e-002 	             	
        29.206	             	  4.230e-001 	
        29.270	             	  4.230e-001 	
        29.280	  9.240e-002 	             	
        29.334	             	  4.230e-001 	
        29.344	  9.120e-002 	             	
        29.398	             	  4.231e-001 	
        29.408	  9.030e-002 	             	
        29.462	             	  4.231e-001 	
        29.472	  9.000e-002 	             	
        29.526	             	  4.231e-001 	
        29.536	  8.910e-002 	             	
        29.600	  8.680e-002 	             	
        29.622	             	  4.231e-001 	
        29.664	  8.510e-002 	             	
        29.686	             	  4.231e-001 	
        29.728	  8.520e-002 	             	
        29.750	             	  4.231e-001 	
        29.792	  8.420e-002 	             	
        29.814	             	  4.231e-001 	
        29.856	  8.440e-002 	             	
        29.878	             	  4.231e-001 	
        29.920	  8.370e-002 	             	
        29.942	             	  4.230e-001 	
        29.984	  8.390e-002 	             	
        30.006	             	  4.230e-001 	
        30.070	             	  4.230e-001 	
        30.080	  8.380e-002 	             	
        30.134	             	  4.230e-001 	
        30.144	  8.390e-002 	             	
        30.198	             	  4.230e-001 	
        30.208	  8.420e-002 	             	
        30.262	             	  4.231e-001 	
        30.272	  8.330e-002 	             	
        30.326	             	  4.231e-001 	
        30.336	  8.310e-002 	             	
        30.400	  8.190e-002 	             	
        30.422	             	  4.230e-001 	
        30.464	  7.940e-002 	             	
        30.486	             	  4.229e-001 	
        30.528	  7.970e-002 	             	
        30.550	             	  4.228e-001 	
        30.592	  7.970e-002 	             	
        30.614	             	  4.228e-001 	
        30.656	  8.020e-002 	             	
        30.678	             	  4.227e-001 	
        30.720	  8.100e-002 	             	
        30.742	             	  4.226e-001 	
        30.784	  8.160e-002 	             	
        30.806	             	  4.226e-001 	
        30.870	             	  4.226e-001 	
        30.880	  8.280e-002 	             	
        30.934	             	  4.226e-001 	
        30.944	  8.340e-002 	             	
        30.998	             	  4.227e-001 	
        31.008	  8.430e-002 	             	
        31.062	             	  4.227e-001 	
        31.072	  8.550e-002 	             	
        31.126	             	  4.228e-001 	
        31.136	  8.610e-002 	             	
        31.200	  8.740e-002 	             	
        31.222	             	  4.228e-001 	
        31.264	  8.870e-002 	             	
        31.286	             	  4.228e-001 	
        31.328	  9.000e-002 	             	
        31.350	             	  4.228e-001 	
        31.392	  9.130e-002 	             	
        31.414	             	  4.228e-001 	
        31.456	  9.170e-002 	             	
        31.478	             	  4.228e-001 	
        31.520	  9.280e-002 	             	
        31.542	             	  4.228e-001 	
        31.584	  9.360e-002 	             	
        31.606	             	  4.227e-001 	
        31.670	             	  4.227e-001 	
        31.680	  9.450e-002 	             	
        31.734	             	  4.227e-001 	
        31.744	  9.490e-002 	             	
        31.798	             	  4.226e-001 	
        31.808	  9.560e-002 	             	
        31.862	             	  4.226e-001 	
        31.872	  9.470e-002 	             	
        31.926	             	  4.226e-001 	
        31.936	  9.590e-002 	             	
        32.000	  9.580e-002 	             	
        32.022	             	  4.226e-001 	
        32.064	  9.620e-002 	             	
        32.086	             	  4.227e-001 	
        32.127	  9.720e-002 	             	
        32.150	             	  4.227e-001 	
        32.192	  9.760e-002 	             	
        32.214	             	  4.228e-001 	
        32.256	  9.860e-002 	             	
        32.278	             	  4.227e-001 	
        32.319	  9.850e-002 	             	
        32.342	             	  4.227e-001 	
        32.384	  9.800e-002 	             	
        32.406	             	  4.227e-001 	
        32.470	             	  4.227e-001 	
        32.480	  9.830e-002 	             	
        32.534	             	  4.227e-001 	
        32.543	  9.820e-002 	             	
        32.598	             	  4.226e-001 	
        32.608	  9.840e-002 	             	
        32.662	             	  4.226e-001 	
        32.671	  9.950e-002 	             	
        32.726	             	  4.226e-001 	
        32.736	  9.990e-002 	             	
        32.799	  9.990e-002 	             	
        32.822	             	  4.226e-001 	
        32.863	  1.003e-001 	             	
        32.886	             	  4.226e-001 	
        32.928	  1.000e-001 	             	
        32.950	             	  4.226e-001 	
        32.991	  1.003e-001 	             	
        33.014	             	  4.226e-001 	
        33.055	  1.009e-001 	             	
        33.078	             	  4.226e-001 	
        33.119	  1.016e-001 	             	
        33.142	             	  4.226e-001 	
        33.184	  1.017e-001 	             	
        33.206	             	  4.226e-001 	
        33.270	             	  4.226e-001 	
        33.280	  1.021e-001 	             	
        33.334	             	  4.226e-001 	
        33.344	  1.026e-001 	             	
        33.398	             	  4.226e-001 	
        33.407	  1.026e-001 	             	
        33.462	             	  4.226e-001 	
        33.471	  1.030e-001 	             	
        33.526	             	  4.226e-001 	
        33.536	  1.024e-001 	             	
        33.599	  1.028e-001 	             	
        33.622	             	  4.227e-001 	
        33.663	  1.025e-001 	             	
        33.686	             	  4.227e-001 	
        33.727	  1.018e-001 	             	
        33.750	             	  4.228e-001 	
        33.791	  1.014e-001 	             	
        33.814	             	  4.229e-001 	
        33.855	  1.017e-001 	             	
        33.878	             	  4.229e-001 	
        33.919	  1.015e-001 	             	
        33.942	             	  4.229e-001 	
        33.983	  1.012e-001 	             	
        34.006	             	  4.229e-001 	
        34.071	             	  4.229e-001 	
        34.080	  1.008e-001 	             	
        34.135	             	  4.229e-001 	
        34.144	  9.930e-002 	             	
        34.199	             	  4.229e-001 	
        34.208	  9.670e-002 	             	
        34.263	             	  4.228e-001 	
        34.272	  9.530e-002 	             	
        34.327	             	  4.228e-001 	
        34.337	  9.510e-002 	             	
        34.400	  9.410e-002 	             	
        34.423	             	  4.228e-001 	
        34.472	  9.330e-002 	             	
        34.487	             	  4.227e-001 	
        34.528	  9.280e-002 	             	
        34.551	             	  4.227e-001 	
        34.592	  9.140e-002 	             	
        34.615	             	  4.227e-001 	
        34.656	  9.100e-002 	             	
        34.679	             	  4.227e-001 	
        34.720	  9.020e-002 	             	
        34.743	             	  4.227e-001 	
        34.785	  8.940e-002 	             	
        34.807	             	  4.228e-001 	
        34.872	             	  4.228e-001 	
        34.880	  8.850e-002 	             	
        34.935	             	  4.228e-001 	
        34.944	  8.630e-002 	             	
        34.999	             	  4.229e-001 	
        35.009	  8.280e-002 	             	
        35.063	             	  4.228e-001 	
        35.072	  8.200e-002 	             	
        35.127	             	  4.228e-001 	
        35.136	  8.210e-002 	             	
        35.200	  8.140e-002 	             	
        35.223	             	  4.228e-001 	
        35.264	  8.110e-002 	             	
        35.287	             	  4.228e-001 	
        35.328	  7.960e-002 	             	
        35.351	             	  4.228e-001 	
        35.392	  7.900e-002 	             	
        35.415	             	  4.228e-001 	
        35.456	  7.910e-002 	             	
        35.479	             	  4.228e-001 	
        35.521	  7.870e-002 	             	
        35.543	             	  4.229e-001 	
        35.584	  7.890e-002 	             	
        35.607	             	  4.229e-001 	
        35.671	             	  4.229e-001 	
        35.680	  7.880e-002 	             	
        35.735	             	  4.229e-001 	
        35.744	  7.930e-002 	             	
        35.799	             	  4.229e-001 	
        35.808	  7.930e-002 	             	
        35.863	             	  4.228e-001 	
        35.872	  7.990e-002 	             	
        35.927	             	  4.229e-001 	
        35.936	  8.030e-002 	             	
        36.000	  8.110e-002 	             	
        36.023	             	  4.228e-001 	
        36.064	  8.200e-002 	             	
        36.087	             	  4.229e-001 	
        36.128	  8.240e-002 	             	
        36.151	             	  4.228e-001 	
        36.192	  8.320e-002 	             	
        36.215	             	  4.228e-001 	
        36.256	  8.460e-002 	             	
        36.279	             	  4.227e-001 	
        36.320	  8.510e-002 	             	
        36.343	             	  4.227e-001 	
        36.384	  8.670e-002 	             	
        36.407	             	  4.227e-001 	
        36.471	             	  4.227e-001 	
        36.480	  8.720e-002 	             	
        36.535	             	  4.227e-001 	
        36.544	  8.680e-002 	             	
        36.599	             	  4.227e-001 	
        36.608	  8.660e-002 	             	
        36.663	             	  4.227e-001 	
        36.672	  8.730e-002 	             	
        36.727	             	  4.228e-001 	
        36.736	  8.840e-002 	             	
        36.800	  8.920e-002 	             	
        36.823	             	  4.228e-001 	
        36.864	  9.020e-002 	             	
        36.887	             	  4.229e-001 	
        36.928	  9.110e-002 	             	
        36.951	             	  4.230e-001 	
        36.992	  9.210e-002 	             	
        37.015	             	  4.230e-001 	
        37.056	  9.330e-002 	             	
        37.079	             	  4.230e-001 	
        37.120	  9.440e-002 	             	
        37.143	             	  4.231e-001 	
        37.184	  9.480e-002 	             	
        37.207	             	  4.230e-001 	
        37.271	             	  4.230e-001 	
        37.280	  9.590e-002 	             	
        37.335	             	  4.231e-001 	
        37.344	  9.670e-002 	             	
        37.399	             	  4.231e-001 	
        37.408	  9.610e-002 	             	
        37.463	             	  4.232e-001 	
        37.472	  9.740e-002 	             	
        37.527	             	  4.233e-001 	
        37.536	  9.850e-002 	             	
        37.600	  9.850e-002 	             	
        37.623	             	  4.234e-001 	
        37.664	  9.850e-002 	             	
        37.687	             	  4.233e-001 	
        37.728	  9.830e-002 	             	
        37.751	             	  4.232e-001 	
        37.792	  9.920e-002 	             	
        37.815	             	  4.232e-001 	
        37.856	  9.950e-002 	             	
        37.879	             	  4.231e-001 	
        37.920	  1.006e-001 	             	
        37.943	             	  4.230e-001 	
        37.984	  1.007e-001 	             	
        38.007	             	  4.230e-001 	
        38.071	             	  4.230e-001 	
        38.080	  1.007e-001 	             	
        38.135	             	  4.230e-001 	
        38.144	  1.011e-001 	             	
        38.199	             	  4.230e-001 	
        38.208	  1.009e-001 	             	
        38.263	             	  4.231e-001 	
        38.272	  1.015e-001 	             	
        38.327	             	  4.231e-001 	
        38.336	  1.021e-001 	             	
        38.400	  1.026e-001 	             	
        38.423	             	  4.232e-001 	
        38.464	  1.028e-001 	             	
        38.487	             	  4.233e-001 	
        38.528	  1.032e-001 	             	
        38.551	             	  4.233e-001 	
        38.592	  1.033e-001 	             	
        38.615	             	  4.233e-001 	
        38.656	  1.042e-001 	             	
        38.679	             	  4.232e-001 	
        38.720	  1.041e-001 	             	
        38.743	             	  4.231e-001 	
        38.784	  1.036e-001 	             	
        38.807	             	  4.231e-001 	
        38.848	  1.040e-001 	             	
        38.871	             	  4.231e-001 	
        38.935	             	  4.230e-001 	
        38.944	  1.034e-001 	             	
        38.999	             	  4.230e-001 	
        39.008	  1.031e-001 	             	
        39.063	             	  4.230e-001 	
        39.072	  1.031e-001 	             	
        39.127	             	  4.231e-001 	
        39.136	  1.033e-001 	             	
        39.200	  1.029e-001 	             	
        39.223	             	  4.231e-001 	
        39.264	  1.027e-001 	             	
        39.287	             	  4.231e-001 	
        39.328	  1.017e-001 	             	
        39.351	             	  4.232e-001 	
        39.392	  1.011e-001 	             	
        39.415	             	  4.232e-001 	
        39.456	  9.720e-002 	             	
        39.479	             	  4.232e-001 	
        39.520	  9.700e-002 	             	
        39.543	             	  4.232e-001 	
        39.584	  9.590e-002 	             	
        39.607	             	  4.233e-001 	
        39.648	  9.530e-002 	             	
        39.671	             	  4.232e-001 	
        39.735	             	  4.232e-001 	
        39.744	  9.450e-002 	             	
        39.799	             	  4.232e-001 	
        39.808	  9.330e-002 	             	
        39.863	             	  4.233e-001 	
        39.872	  9.280e-002 	             	
        39.927	             	  4.234e-001 	
        39.936	  9.110e-002 	             	
        40.000	  9.010e-002 	             	
        40.023	             	  4.234e-001 	
        40.064	  8.950e-002 	             	
        40.087	             	  4.234e-001 	
        40.128	  8.780e-002 	             	
        40.151	             	  4.234e-001 	
        40.192	  8.200e-002 	             	
        40.215	             	  4.234e-001 	
        40.256	  8.160e-002 	             	
        40.279	             	  4.235e-001 	
        40.320	  8.090e-002 	             	
        40.343	             	  4.235e-001 	
        40.384	  8.030e-002 	             	
        40.407	             	  4.235e-001 	
        40.448	  7.910e-002 	             	
        40.471	             	  4.234e-001 	
        40.535	             	  4.235e-001 	
        40.544	  7.800e-002 	             	
        40.599	             	  4.235e-001 	
        40.608	  7.820e-002 	             	
        40.663	             	  4.235e-001 	
        40.672	  7.780e-002 	             	
        40.727	             	  4.236e-001 	
        40.736	  7.810e-002 	             	
        40.800	  7.760e-002 	             	
        40.823	             	  4.236e-001 	
        40.864	  7.780e-002 	             	
        40.887	             	  4.236e-001 	
        40.928	  7.810e-002 	             	
        40.951	             	  4.235e-001 	
        40.992	  7.860e-002 	             	
        41.015	             	  4.235e-001 	
        41.056	  7.890e-002 	             	
        41.079	             	  4.235e-001 	
        41.120	  7.920e-002 	             	
        41.143	             	  4.235e-001 	
        41.184	  8.040e-002 	             	
        41.207	             	  4.235e-001 	
        41.248	  8.070e-002 	             	
        41.271	             	  4.234e-001 	
        41.335	             	  4.234e-001 	
        41.344	  8.140e-002 	             	
        41.399	             	  4.233e-001 	
        41.408	  8.210e-002 	             	
        41.463	             	  4.233e-001 	
        41.472	  8.280e-002 	             	
        41.527	             	  4.232e-001 	
        41.536	  8.380e-002 	             	
        41.591	             	  4.233e-001 	
        41.600	  8.410e-002 	             	
        41.664	  8.290e-002 	             	
        41.687	             	  4.233e-001 	
        41.728	  8.380e-002 	             	
        41.751	             	  4.234e-001 	
        41.792	  8.500e-002 	             	
        41.815	             	  4.234e-001 	
        41.856	  8.660e-002 	             	
        41.879	             	  4.234e-001 	
        41.920	  8.770e-002 	             	
        41.943	             	  4.233e-001 	
        41.984	  8.910e-002 	             	
        42.007	             	  4.233e-001 	
        42.048	  9.020e-002 	             	
        42.071	             	  4.233e-001 	
        42.135	             	  4.233e-001 	
        42.144	  9.120e-002 	             	
        42.199	             	  4.232e-001 	
        42.208	  9.230e-002 	             	
        42.263	             	  4.233e-001 	
        42.272	  9.430e-002 	             	
        42.327	             	  4.233e-001 	
        42.336	  9.470e-002 	             	
        42.391	             	  4.233e-001 	
        42.400	  9.600e-002 	             	
        42.464	  9.720e-002 	             	
        42.487	             	  4.234e-001 	
        42.528	  9.810e-002 	             	
        42.551	             	  4.234e-001 	
        42.592	  9.940e-002 	             	
        42.614	             	  4.234e-001 	
        42.656	  1.006e-001 	             	
        42.679	             	  4.233e-001 	
        42.720	  1.012e-001 	             	
        42.743	             	  4.233e-001 	
        42.784	  1.022e-001 	             	
        42.807	             	  4.233e-001 	
        42.848	  1.025e-001 	             	
        42.871	             	  4.233e-001 	
        42.935	             	  4.233e-001 	
        42.944	  1.024e-001 	             	
        42.999	             	  4.234e-001 	
        43.008	  1.017e-001 	             	
        43.063	             	  4.234e-001 	
        43.072	  9.980e-002 	             	
        43.127	             	  4.233e-001 	
        43.136	  1.008e-001 	             	
        43.191	             	  4.233e-001 	
        43.200	  1.018e-001 	             	
        43.264	  1.030e-001 	             	
        43.287	             	  4.232e-001 	
        43.328	  1.034e-001 	             	
        43.350	             	  4.232e-001 	
        43.392	  1.039e-001 	             	
        43.415	             	  4.232e-001 	
        43.456	  1.045e-001 	             	
        43.478	             	  4.231e-001 	
        43.520	  1.048e-001 	             	
        43.543	             	  4.231e-001 	
        43.584	  1.051e-001 	             	
        43.606	             	  4.230e-001 	
        43.648	  1.053e-001 	             	
        43.671	             	  4.231e-001 	
        43.735	             	  4.231e-001 	
        43.744	  1.068e-001 	             	
        43.799	             	  4.230e-001 	
        43.808	  1.070e-001 	             	
        43.863	             	  4.231e-001 	
        43.872	  1.064e-001 	             	
        43.927	             	  4.230e-001 	
        43.936	  1.071e-001 	             	
        43.991	             	  4.231e-001 	
        44.000	  1.071e-001 	             	
        44.064	  1.067e-001 	             	
        44.087	             	  4.231e-001 	
        44.128	  1.050e-001 	             	
        44.150	             	  4.232e-001 	
        44.192	  1.052e-001 	             	
        44.214	             	  4.232e-001 	
        44.256	  1.048e-001 	             	
        44.279	             	  4.232e-001 	
        44.320	  1.047e-001 	             	
        44.342	             	  4.232e-001 	
        44.384	  1.050e-001 	             	
        44.407	             	  4.232e-001 	
        44.448	  1.046e-001 	             	
        44.470	             	  4.232e-001 	
        44.535	             	  4.232e-001 	
        44.544	  1.035e-001 	             	
        44.598	             	  4.232e-001 	
        44.608	  1.025e-001 	             	
        44.662	             	  4.233e-001 	
        44.672	  9.860e-002 	             	
        44.726	             	  4.233e-001 	
        44.736	  9.740e-002 	             	
        44.790	             	  4.234e-001 	
        44.800	  9.640e-002 	             	
        44.864	  9.590e-002 	             	
        44.886	             	  4.234e-001 	
        44.928	  9.530e-002 	             	
        44.951	             	  4.234e-001 	
        44.992	  9.430e-002 	             	
        45.014	             	  4.234e-001 	
        45.056	  9.330e-002 	             	
        45.078	             	  4.235e-001 	
        45.120	  9.300e-002 	             	
        45.142	             	  4.235e-001 	
        45.184	  9.230e-002 	             	
        45.206	             	  4.234e-001 	
        45.248	  9.120e-002 	             	
        45.270	             	  4.233e-001 	
        45.334	             	  4.232e-001 	
        45.344	  9.120e-002 	             	
        45.398	             	  4.231e-001 	
        45.408	  8.940e-002 	             	
        45.462	             	  4.230e-001 	
        45.472	  8.460e-002 	             	
        45.526	             	  4.230e-001 	
        45.536	  8.180e-002 	             	
        45.590	             	  4.229e-001 	
        45.600	  8.180e-002 	             	
        45.664	  8.140e-002 	             	
        45.686	             	  4.229e-001 	
        45.728	  8.150e-002 	             	
        45.751	             	  4.229e-001 	
        45.792	  8.040e-002 	             	
        45.814	             	  4.229e-001 	
        45.856	  7.860e-002 	             	
        45.878	             	  4.230e-001 	
        45.920	  7.920e-002 	             	
        45.942	             	  4.230e-001 	
        45.984	  7.940e-002 	             	
        46.006	             	  4.230e-001 	
        46.048	  7.970e-002 	             	
        46.070	             	  4.230e-001 	
        46.134	             	  4.229e-001 	
        46.144	  7.930e-002 	             	
        46.198	             	  4.229e-001 	
        46.208	  7.960e-002 	             	
        46.262	             	  4.229e-001 	
        46.272	  7.920e-002 	             	
        46.326	             	  4.229e-001 	
        46.336	  7.740e-002 	             	
        46.391	             	  4.228e-001 	
        46.400	  7.620e-002 	             	
        46.464	  7.590e-002 	             	
        46.487	             	  4.228e-001 	
        46.528	  7.560e-002 	             	
        46.550	             	  4.228e-001 	
        46.592	  7.580e-002 	             	
        46.614	             	  4.229e-001 	
        46.656	  7.740e-002 	             	
        46.678	             	  4.230e-001 	
        46.720	  7.860e-002 	             	
        46.742	             	  4.230e-001 	
        46.784	  7.990e-002 	             	
        46.806	             	  4.231e-001 	
        46.848	  8.140e-002 	             	
        46.870	             	  4.230e-001 	
        46.934	             	  4.230e-001 	
        46.944	  8.310e-002 	             	
        46.998	             	  4.230e-001 	
        47.008	  8.390e-002 	             	
        47.062	             	  4.230e-001 	
        47.072	  8.530e-002 	             	
        47.126	             	  4.230e-001 	
        47.136	  8.680e-002 	             	
        47.190	             	  4.231e-001 	
        47.200	  8.830e-002 	             	
        47.264	  9.030e-002 	             	
        47.286	             	  4.231e-001 	
        47.328	  9.150e-002 	             	
        47.350	             	  4.232e-001 	
        47.392	  9.290e-002 	             	
        47.414	             	  4.233e-001 	
        47.456	  9.370e-002 	             	
        47.478	             	  4.233e-001 	
        47.520	  9.510e-002 	             	
        47.542	             	  4.234e-001 	
        47.584	  9.660e-002 	             	
        47.606	             	  4.234e-001 	
        47.648	  9.740e-002 	             	
        47.670	             	  4.234e-001 	
        47.734	             	  4.234e-001 	
        47.744	  9.820e-002 	             	
        47.798	             	  4.233e-001 	
        47.808	  9.890e-002 	             	
        47.862	             	  4.233e-001 	
        47.872	  9.800e-002 	             	
        47.926	             	  4.232e-001 	
        47.936	  9.890e-002 	             	
        47.990	             	  4.231e-001 	
        48.000	  9.890e-002 	             	
        48.064	  9.900e-002 	             	
        48.086	             	  4.230e-001 	
        48.128	  1.003e-001 	             	
        48.150	             	  4.230e-001 	
        48.192	  1.009e-001 	             	
        48.215	             	  4.229e-001 	
        48.256	  1.003e-001 	             	
        48.278	             	  4.229e-001 	
        48.320	  1.016e-001 	             	
        48.342	             	  4.229e-001 	
        48.384	  1.014e-001 	             	
        48.406	             	  4.229e-001 	
        48.448	  1.020e-001 	             	
        48.470	             	  4.229e-001 	
        48.534	             	  4.230e-001 	
        48.544	  1.025e-001 	             	
        48.598	             	  4.230e-001 	
        48.608	  1.026e-001 	             	
        48.662	             	  4.231e-001 	
        48.672	  1.033e-001 	             	
        48.726	             	  4.230e-001 	
        48.736	  1.039e-001 	             	
        48.790	             	  4.230e-001 	
        48.800	  1.047e-001 	             	
        48.864	  1.056e-001 	             	
        48.886	             	  4.230e-001 	
        48.928	  1.058e-001 	             	
        48.950	             	  4.230e-001 	
        48.992	  1.062e-001 	             	
        49.014	             	  4.230e-001 	
        49.056	  1.066e-001 	             	
        49.078	             	  4.229e-001 	
        49.120	  1.070e-001 	             	
        49.142	             	  4.229e-001 	
        49.184	  1.068e-001 	             	
        49.206	             	  4.229e-001 	
        49.248	  1.072e-001 	             	
        49.270	             	  4.229e-001 	
        49.334	             	  4.229e-001 	
        49.344	  1.072e-001 	             	
        49.398	             	  4.229e-001 	
        49.408	  1.068e-001 	             	
        49.462	             	  4.230e-001 	
        49.472	  1.068e-001 	             	
        49.526	             	  4.230e-001 	
        49.536	  1.069e-001 	             	
        49.590	             	  4.230e-001 	
        49.599	  1.068e-001 	             	
        49.664	  1.066e-001 	             	
        49.686	             	  4.230e-001 	
        49.728	  1.062e-001 	             	
        49.750	             	  4.231e-001 	
        49.792	  1.057e-001 	             	
        49.814	             	  4.231e-001 	
        49.856	  1.042e-001 	             	
        49.878	             	  4.232e-001 	
        49.920	  1.015e-001 	             	
        49.942	             	  4.232e-001 	
        49.984	  1.007e-001 	             	
        50.006	             	  4.232e-001 	
        50.047	  1.003e-001 	             	
        50.070	             	  4.233e-001 	
        50.134	             	  4.233e-001 	
        50.144	  1.001e-001 	             	
        50.198	             	  4.234e-001 	
        50.208	  9.890e-002 	             	
        50.262	             	  4.233e-001 	
        50.272	  9.780e-002 	             	
        50.326	             	  4.233e-001 	
        50.335	  9.750e-002 	             	
        50.390	             	  4.233e-001 	
        50.400	  9.620e-002 	             	
        50.464	  9.470e-002 	             	
        50.486	             	  4.232e-001 	
        50.528	  9.050e-002 	             	
        50.550	             	  4.232e-001 	
        50.591	  8.510e-002 	             	
        50.614	             	  4.232e-001 	
        50.656	  8.440e-002 	             	
        50.678	             	  4.231e-001 	
        50.719	  8.340e-002 	             	
        50.742	             	  4.230e-001 	
        50.783	  8.350e-002 	             	
        50.806	             	  4.230e-001 	
        50.847	  8.350e-002 	             	
        50.870	             	  4.229e-001 	
        50.934	             	  4.229e-001 	
        50.943	  8.230e-002 	             	
        50.998	             	  4.229e-001 	
        51.007	  8.070e-002 	             	
        51.062	             	  4.230e-001 	
        51.072	  7.980e-002 	             	
        51.126	             	  4.232e-001 	
        51.135	  7.980e-002 	             	
        51.190	             	  4.233e-001 	
        51.200	  8.050e-002 	             	
        51.264	  8.090e-002 	             	
        51.286	             	  4.234e-001 	
        51.327	  8.090e-002 	             	
        51.350	             	  4.235e-001 	
        51.391	  7.790e-002 	             	
        51.414	             	  4.235e-001 	
        51.455	  7.480e-002 	             	
        51.478	             	  4.234e-001 	
        51.519	  7.410e-002 	             	
        51.542	             	  4.233e-001 	
        51.584	  7.360e-002 	             	
        51.607	             	  4.232e-001 	
        51.649	  7.470e-002 	             	
        51.671	             	  4.232e-001 	
        51.713	  7.480e-002 	             	
        51.735	             	  4.231e-001 	
        51.799	             	  4.231e-001 	
        51.808	  7.530e-002 	             	
        51.863	             	  4.230e-001 	
        51.872	  7.670e-002 	             	
        51.927	             	  4.230e-001 	
        51.936	  7.810e-002 	             	
        51.991	             	  4.230e-001 	
        52.000	  7.950e-002 	             	
        52.064	  8.080e-002 	             	
        52.087	             	  4.230e-001 	
        52.128	  8.240e-002 	             	
        52.151	             	  4.231e-001 	
        52.192	  8.360e-002 	             	
        52.215	             	  4.232e-001 	
        52.256	  8.540e-002 	             	
        52.279	             	  4.232e-001 	
        52.321	  8.700e-002 	             	
        52.343	             	  4.232e-001 	
        52.384	  8.860e-002 	             	
        52.407	             	  4.232e-001 	
        52.448	  9.070e-002 	             	
        52.471	             	  4.231e-001 	
        52.512	  9.180e-002 	             	
        52.535	             	  4.231e-001 	
        52.599	             	  4.231e-001 	
        52.608	  9.350e-002 	             	
        52.663	             	  4.231e-001 	
        52.672	  9.400e-002 	             	
        52.727	             	  4.232e-001 	
        52.736	  9.510e-002 	             	
        52.791	             	  4.232e-001 	
        52.800	  9.610e-002 	             	
        52.864	  9.650e-002 	             	
        52.887	             	  4.232e-001 	
        52.928	  9.720e-002 	             	
        52.951	             	  4.233e-001 	
        52.992	  9.790e-002 	             	
        53.015	             	  4.234e-001 	
        53.056	  9.790e-002 	             	
        53.079	             	  4.234e-001 	
        53.120	  9.780e-002 	             	
        53.143	             	  4.235e-001 	
        53.184	  9.830e-002 	             	
        53.207	             	  4.234e-001 	
        53.248	  9.920e-002 	             	
        53.271	             	  4.234e-001 	
        53.312	  9.980e-002 	             	
        53.335	             	  4.234e-001 	
        53.399	             	  4.234e-001 	
        53.408	  1.010e-001 	             	
        53.463	             	  4.234e-001 	
        53.472	  1.015e-001 	             	
        53.527	             	  4.233e-001 	
        53.536	  1.019e-001 	             	
        53.591	             	  4.232e-001 	
        53.600	  1.020e-001 	             	
        53.655	             	  4.231e-001 	
        53.664	  1.026e-001 	             	
        53.728	  1.034e-001 	             	
        53.751	             	  4.230e-001 	
        53.792	  1.038e-001 	             	
        53.815	             	  4.230e-001 	
        53.856	  1.042e-001 	             	
        53.879	             	  4.229e-001 	
        53.920	  1.053e-001 	             	
        53.943	             	  4.229e-001 	
        53.984	  1.065e-001 	             	
        54.007	             	  4.229e-001 	
        54.048	  1.071e-001 	             	
        54.071	             	  4.229e-001 	
        54.112	  1.076e-001 	             	
        54.135	             	  4.230e-001 	
        54.199	             	  4.230e-001 	
        54.208	  1.081e-001 	             	
        54.263	             	  4.229e-001 	
        54.272	  1.079e-001 	             	
        54.327	             	  4.229e-001 	
        54.336	  1.078e-001 	             	
        54.391	             	  4.229e-001 	
        54.400	  1.085e-001 	             	
        54.455	             	  4.229e-001 	
        54.465	  1.080e-001 	             	
        54.528	  1.081e-001 	             	
        54.551	             	  4.230e-001 	
        54.592	  1.079e-001 	             	
        54.615	             	  4.230e-001 	
        54.656	  1.090e-001 	             	
        54.679	             	  4.231e-001 	
        54.720	  1.084e-001 	             	
        54.743	             	  4.232e-001 	
        54.784	  1.071e-001 	             	
        54.807	             	  4.231e-001 	
        54.848	  1.069e-001 	             	
        54.871	             	  4.231e-001 	
        54.912	  1.063e-001 	             	
        54.935	             	  4.230e-001 	
        54.999	             	  4.229e-001 	
        55.008	  1.060e-001 	             	
        55.063	             	  4.229e-001 	
        55.072	  1.056e-001 	             	
        55.127	             	  4.229e-001 	
        55.136	  1.051e-001 	             	
        55.191	             	  4.229e-001 	
        55.200	  1.052e-001 	             	
        55.255	             	  4.230e-001 	
        55.264	  1.052e-001 	             	
        55.328	  1.054e-001 	             	
        55.351	             	  4.230e-001 	
        55.392	  1.053e-001 	             	
        55.415	             	  4.230e-001 	
        55.456	  1.054e-001 	             	
        55.479	             	  4.230e-001 	
        55.520	  1.051e-001 	             	
        55.543	             	  4.230e-001 	
        55.584	  1.032e-001 	             	
        55.607	             	  4.229e-001 	
        55.648	  1.022e-001 	             	
        55.671	             	  4.229e-001 	
        55.712	  1.014e-001 	             	
        55.735	             	  4.228e-001 	
        55.799	             	  4.228e-001 	
        55.808	  1.011e-001 	             	
        55.863	             	  4.228e-001 	
        55.872	  1.006e-001 	             	
        55.927	             	  4.229e-001 	
        55.936	  9.950e-002 	             	
        55.991	             	  4.229e-001 	
        56.000	  9.850e-002 	             	
        56.055	             	  4.229e-001 	
        56.064	  9.770e-002 	             	
        56.128	  9.700e-002 	             	
        56.151	             	  4.228e-001 	
        56.192	  9.600e-002 	             	
        56.215	             	  4.229e-001 	
        56.256	  9.420e-002 	             	
        56.279	             	  4.229e-001 	
        56.320	  9.220e-002 	             	
        56.343	             	  4.229e-001 	
        56.384	  9.170e-002 	             	
        56.407	             	  4.229e-001 	
        56.448	  9.060e-002 	             	
        56.471	             	  4.230e-001 	
        56.512	  9.030e-002 	             	
        56.535	             	  4.229e-001 	
        56.599	             	  4.229e-001 	
        56.608	  9.010e-002 	             	
        56.663	             	  4.228e-001 	
        56.672	  8.950e-002 	             	
        56.727	             	  4.227e-001 	
        56.736	  8.910e-002 	             	
        56.791	             	  4.226e-001 	
        56.800	  8.650e-002 	             	
        56.855	             	  4.225e-001 	
        56.864	  8.640e-002 	             	
        56.928	  8.630e-002 	             	
        56.951	             	  4.226e-001 	
        56.992	  8.630e-002 	             	
        57.015	             	  4.227e-001 	
        57.056	  8.710e-002 	             	
        57.079	             	  4.227e-001 	
        57.120	  8.760e-002 	             	
        57.143	             	  4.228e-001 	
        57.184	  8.680e-002 	             	
        57.207	             	  4.229e-001 	
        57.248	  8.470e-002 	             	
        57.271	             	  4.229e-001 	
        57.312	  8.080e-002 	             	
        57.335	             	  4.229e-001 	
        57.399	             	  4.230e-001 	
        57.408	  8.020e-002 	             	
        57.463	             	  4.230e-001 	
        57.472	  8.070e-002 	             	
        57.527	             	  4.230e-001 	
        57.536	  8.180e-002 	             	
        57.591	             	  4.230e-001 	
        57.600	  8.220e-002 	             	
        57.655	             	  4.230e-001 	
        57.664	  8.360e-002 	             	
        57.728	  8.480e-002 	             	
        57.751	             	  4.229e-001 	
        57.792	  8.600e-002 	             	
        57.815	             	  4.229e-001 	
        57.856	  8.680e-002 	             	
        57.879	             	  4.228e-001 	
        57.920	  8.860e-002 	             	
        57.943	             	  4.227e-001 	
        57.984	  8.980e-002 	             	
        58.007	             	  4.227e-001 	
        58.048	  9.050e-002 	             	
        58.071	             	  4.227e-001 	
        58.112	  9.130e-002 	             	
        58.135	             	  4.227e-001 	
        58.199	             	  4.228e-001 	
        58.208	  9.280e-002 	             	
        58.263	             	  4.229e-001 	
        58.272	  9.260e-002 	             	
        58.327	             	  4.230e-001 	
        58.336	  9.100e-002 	             	
        58.391	             	  4.231e-001 	
        58.400	  9.190e-002 	             	
        58.455	             	  4.231e-001 	
        58.464	  9.210e-002 	             	
        58.528	  9.190e-002 	             	
        58.551	             	  4.230e-001 	
        58.592	  9.310e-002 	             	
        58.615	             	  4.231e-001 	
        58.656	  9.410e-002 	             	
        58.679	             	  4.231e-001 	
        58.720	  9.470e-002 	             	
        58.743	             	  4.231e-001 	
        58.784	  9.520e-002 	             	
        58.807	             	  4.231e-001 	
        58.848	  9.600e-002 	             	
        58.871	             	  4.230e-001 	
        58.912	  9.760e-002 	             	
        58.935	             	  4.230e-001 	
        58.999	             	  4.229e-001 	
        59.008	  9.880e-002 	             	
        59.063	             	  4.229e-001 	
        59.072	  1.007e-001 	             	
        59.127	             	  4.228e-001 	
        59.136	  1.025e-001 	             	
        59.191	             	  4.229e-001 	
        59.200	  1.031e-001 	             	
        59.255	             	  4.228e-001 	
        59.264	  1.034e-001 	             	
        59.328	  1.036e-001 	             	
        59.351	             	  4.229e-001 	
        59.392	  1.046e-001 	             	
        59.415	             	  4.229e-001 	
        59.456	  1.055e-001 	             	
        59.479	             	  4.229e-001 	
        59.520	  1.054e-001 	             	
        59.543	             	  4.229e-001 	
        59.584	  1.048e-001 	             	
        59.607	             	  4.229e-001 	
        59.648	  1.060e-001 	             	
        59.671	             	  4.229e-001 	
        59.712	  1.062e-001 	             	
        59.735	             	  4.228e-001 	
        59.799	             	  4.229e-001 	
        59.808	  1.069e-001 	             	
        59.863	             	  4.229e-001 	
        59.872	  1.071e-001 	             	
        59.927	             	  4.230e-001 	
        59.936	  1.080e-001 	             	
        59.991	             	  4.230e-001 	
        60.000	  1.083e-001 	             	
        60.055	             	  4.230e-001 	
        60.064	  1.090e-001 	             	
        60.128	  1.089e-001 	             	
        60.151	             	  4.229e-001 	
        60.192	  1.098e-001 	             	
        60.215	             	  4.229e-001 	
        60.256	  1.101e-001 	             	
        60.279	             	  4.229e-001 	
        60.320	  1.099e-001 	             	
        60.343	             	  4.229e-001 	
        60.384	  1.101e-001 	             	
        60.407	             	  4.229e-001 	
        60.448	  1.106e-001 	             	
        60.471	             	  4.229e-001 	
        60.512	  1.095e-001 	             	
        60.535	             	  4.228e-001 	
        60.599	             	  4.228e-001 	
        60.608	  1.085e-001 	             	
        60.663	             	  4.227e-001 	
        60.672	  1.073e-001 	             	
        60.727	             	  4.227e-001 	
        60.736	  1.068e-001 	             	
        60.791	             	  4.227e-001 	
        60.800	  1.064e-001 	             	
        60.855	             	  4.227e-001 	
        60.864	  1.058e-001 	             	
        60.928	  1.044e-001 	             	
        60.951	             	  4.227e-001 	
        60.992	  1.035e-001 	             	
        61.015	             	  4.227e-001 	
        61.056	  1.025e-001 	             	
        61.078	             	  4.227e-001 	
        61.120	  9.990e-002 	             	
        61.142	             	  4.228e-001 	
        61.184	  9.860e-002 	             	
        61.207	             	  4.229e-001 	
        61.248	  9.920e-002 	             	
        61.271	             	  4.229e-001 	
        61.312	  9.850e-002 	             	
        61.335	             	  4.230e-001 	
        61.399	             	  4.229e-001 	
        61.408	  9.830e-002 	             	
        61.463	             	  4.229e-001 	
        61.472	  9.810e-002 	             	
        61.527	             	  4.228e-001 	
        61.536	  9.780e-002 	             	
        61.591	             	  4.227e-001 	
        61.600	  9.670e-002 	             	
        61.655	             	  4.227e-001 	
        61.664	  9.580e-002 	             	
        61.728	  9.500e-002 	             	
        61.751	             	  4.227e-001 	
        61.792	  9.510e-002 	             	
        61.814	             	  4.226e-001 	
        61.856	  9.500e-002 	             	
        61.878	             	  4.227e-001 	
        61.920	  9.440e-002 	             	
        61.943	             	  4.227e-001 	
        61.984	  9.490e-002 	             	
        62.006	             	  4.228e-001 	
        62.048	  9.470e-002 	             	
        62.070	             	  4.228e-001 	
        62.112	  9.340e-002 	             	
        62.134	             	  4.228e-001 	
        62.198	             	  4.228e-001 	
        62.208	  8.440e-002 	             	
        62.262	             	  4.228e-001 	
        62.272	  8.340e-002 	             	
        62.327	             	  4.227e-001 	
        62.336	  8.360e-002 	             	
        62.390	             	  4.227e-001 	
        62.400	  8.440e-002 	             	
        62.454	             	  4.227e-001 	
        62.464	  8.550e-002 	             	
        62.528	  8.640e-002 	             	
        62.550	             	  4.228e-001 	
        62.592	  8.750e-002 	             	
        62.615	             	  4.228e-001 	
        62.656	  8.800e-002 	             	
        62.678	             	  4.228e-001 	
        62.720	  8.960e-002 	             	
        62.742	             	  4.228e-001 	
        62.784	  8.970e-002 	             	
        62.806	             	  4.228e-001 	
        62.848	  9.030e-002 	             	
        62.870	             	  4.228e-001 	
        62.912	  9.170e-002 	             	
        62.934	             	  4.228e-001 	
        62.998	             	  4.227e-001 	
        63.008	  9.240e-002 	             	
        63.062	             	  4.227e-001 	
        63.072	  9.310e-002 	             	
        63.126	             	  4.226e-001 	
        63.136	  9.330e-002 	             	
        63.190	             	  4.227e-001 	
        63.200	  9.180e-002 	             	
        63.255	             	  4.227e-001 	
        63.264	  9.270e-002 	             	
        63.328	  9.380e-002 	             	
        63.350	             	  4.228e-001 	
        63.392	  9.430e-002 	             	
        63.414	             	  4.228e-001 	
        63.456	  9.410e-002 	             	
        63.478	             	  4.229e-001 	
        63.520	  9.390e-002 	             	
        63.542	             	  4.228e-001 	
        63.584	  9.380e-002 	             	
        63.606	             	  4.228e-001 	
        63.648	  9.350e-002 	             	
        63.670	             	  4.228e-001 	
        63.712	  9.350e-002 	             	
        63.734	             	  4.228e-001 	
        63.798	             	  4.228e-001 	
        63.808	  9.350e-002 	             	
        63.862	             	  4.228e-001 	
        63.872	  9.340e-002 	             	
        63.926	             	  4.228e-001 	
        63.936	  9.380e-002 	             	
        63.990	             	  4.228e-001 	
        64.000	  9.460e-002 	             	
        64.054	             	  4.228e-001 	
        64.064	  9.490e-002 	             	
        64.128	  9.580e-002 	             	
        64.150	             	  4.229e-001 	
        64.192	  9.720e-002 	             	
        64.214	             	  4.229e-001 	
        64.256	  9.820e-002 	             	
        64.278	             	  4.230e-001 	
        64.320	  9.910e-002 	             	
        64.342	             	  4.230e-001 	
        64.384	  9.770e-002 	             	
        64.406	             	  4.230e-001 	
        64.448	  9.830e-002 	             	
        64.470	             	  4.230e-001 	
        64.512	  9.980e-002 	             	
        64.534	             	  4.230e-001 	
        64.598	             	  4.230e-001 	
        64.608	  1.001e-001 	             	
        64.662	             	  4.230e-001 	
        64.672	  1.008e-001 	             	
        64.726	             	  4.229e-001 	
        64.736	  1.018e-001 	             	
        64.790	             	  4.229e-001 	
        64.800	  1.037e-001 	             	
        64.854	             	  4.228e-001 	
        64.864	  1.048e-001 	             	
        64.928	  1.064e-001 	             	
        64.950	             	  4.227e-001 	
        64.992	  1.070e-001 	             	
        65.014	             	  4.227e-001 	
        65.056	  1.078e-001 	             	
        65.078	             	  4.227e-001 	
        65.120	  1.080e-001 	             	
        65.142	             	  4.228e-001 	
        65.184	  1.082e-001 	             	
        65.206	             	  4.228e-001 	
        65.248	  1.089e-001 	             	
        65.270	             	  4.227e-001 	
        65.312	  1.087e-001 	             	
        65.334	             	  4.227e-001 	
        65.398	             	  4.226e-001 	
        65.408	  1.091e-001 	             	
        65.462	             	  4.226e-001 	
        65.472	  1.091e-001 	             	
        65.526	             	  4.227e-001 	
        65.536	  1.070e-001 	             	
        65.590	             	  4.227e-001 	
        65.600	  1.057e-001 	             	
        65.654	             	  4.227e-001 	
        65.664	  1.055e-001 	             	
        65.728	  1.050e-001 	             	
        65.750	             	  4.228e-001 	
        65.792	  1.042e-001 	             	
        65.814	             	  4.228e-001 	
        65.856	  1.039e-001 	             	
        65.878	             	  4.229e-001 	
        65.920	  1.023e-001 	             	
        65.942	             	  4.229e-001 	
        65.984	  1.012e-001 	             	
        66.006	             	  4.229e-001 	
        66.048	  9.920e-002 	             	
        66.070	             	  4.230e-001 	
        66.112	  9.860e-002 	             	
        66.134	             	  4.230e-001 	
        66.176	  9.770e-002 	             	
        66.198	             	  4.230e-001 	
        66.262	             	  4.229e-001 	
        66.272	  9.680e-002 	             	
        66.326	             	  4.228e-001 	
        66.336	  9.640e-002 	             	
        66.390	             	  4.227e-001 	
        66.400	  9.550e-002 	             	
        66.454	             	  4.227e-001 	
        66.464	  9.430e-002 	             	
        66.518	             	  4.227e-001 	
        66.528	  9.360e-002 	             	
        66.592	  9.330e-002 	             	
        66.614	             	  4.228e-001 	
        66.656	  9.340e-002 	             	
        66.678	             	  4.228e-001 	
        66.720	  9.390e-002 	             	
        66.742	             	  4.228e-001 	
        66.784	  9.380e-002 	             	
        66.806	             	  4.228e-001 	
        66.848	  9.340e-002 	             	
        66.870	             	  4.228e-001 	
        66.912	  9.490e-002 	             	
        66.934	             	  4.227e-001 	
        66.975	  9.520e-002 	             	
        66.998	             	  4.227e-001 	
        67.062	             	  4.227e-001 	
        67.072	  9.550e-002 	             	
        67.126	             	  4.228e-001 	
        67.136	  9.250e-002 	             	
        67.190	             	  4.228e-001 	
        67.200	  9.280e-002 	             	
        67.254	             	  4.228e-001 	
        67.264	  9.270e-002 	             	
        67.318	             	  4.229e-001 	
        67.328	  9.260e-002 	             	
        67.391	  9.300e-002 	             	
        67.414	             	  4.228e-001 	
        67.455	  9.320e-002 	             	
        67.478	             	  4.229e-001 	
        67.520	  9.160e-002 	             	
        67.542	             	  4.228e-001 	
        67.584	  9.050e-002 	             	
        67.606	             	  4.227e-001 	
        67.648	  9.050e-002 	             	
        67.670	             	  4.226e-001 	
        67.712	  9.070e-002 	             	
        67.734	             	  4.226e-001 	
        67.776	  9.190e-002 	             	
        67.798	             	  4.226e-001 	
        67.862	             	  4.227e-001 	
        67.871	  9.200e-002 	             	
        67.926	             	  4.227e-001 	
        67.936	  9.260e-002 	             	
        67.990	             	  4.227e-001 	
        68.000	  9.110e-002 	             	
        68.054	             	  4.227e-001 	
        68.064	  8.890e-002 	             	
        68.118	             	  4.226e-001 	
        68.128	  8.910e-002 	             	
        68.192	  8.940e-002 	             	
        68.214	             	  4.225e-001 	
        68.255	  8.970e-002 	             	
        68.278	             	  4.225e-001 	
        68.320	  9.110e-002 	             	
        68.342	             	  4.225e-001 	
        68.383	  9.250e-002 	             	
        68.406	             	  4.225e-001 	
        68.447	  9.250e-002 	             	
        68.470	             	  4.226e-001 	
        68.511	  9.300e-002 	             	
        68.534	             	  4.227e-001 	
        68.575	  9.290e-002 	             	
        68.598	             	  4.227e-001 	
        68.662	             	  4.228e-001 	
        68.672	  9.280e-002 	             	
        68.726	             	  4.229e-001 	
        68.736	  9.270e-002 	             	
        68.790	             	  4.229e-001 	
        68.799	  9.120e-002 	             	
        68.854	             	  4.228e-001 	
        68.863	  9.040e-002 	             	
        68.918	             	  4.228e-001 	
        68.927	  8.890e-002 	             	
        68.992	  8.770e-002 	             	
        69.014	             	  4.228e-001 	
        69.056	  8.510e-002 	             	
        69.079	             	  4.228e-001 	
        69.120	  8.340e-002 	             	
        69.143	             	  4.229e-001 	
        69.184	  8.200e-002 	             	
        69.207	             	  4.229e-001 	
        69.248	  8.300e-002 	             	
        69.271	             	  4.230e-001 	
        69.313	  8.500e-002 	             	
        69.335	             	  4.230e-001 	
        69.376	  8.880e-002 	             	
        69.399	             	  4.231e-001 	
        69.463	             	  4.232e-001 	
        69.472	  9.300e-002 	             	
        69.527	             	  4.232e-001 	
        69.536	  9.570e-002 	             	
        69.591	             	  4.231e-001 	
        69.600	  9.650e-002 	             	
        69.655	             	  4.231e-001 	
        69.664	  9.170e-002 	             	
        69.719	             	  4.231e-001 	
        69.728	  9.400e-002 	             	
        69.792	  9.700e-002 	             	
        69.815	             	  4.231e-001 	
        69.856	  9.800e-002 	             	
        69.879	             	  4.231e-001 	
        69.920	  1.002e-001 	             	
        69.943	             	  4.230e-001 	
        69.984	  1.020e-001 	             	
        70.007	             	  4.229e-001 	
        70.048	  1.032e-001 	             	
        70.071	             	  4.229e-001 	
        70.113	  1.049e-001 	             	
        70.135	             	  4.229e-001 	
        70.176	  1.055e-001 	             	
        70.199	             	  4.229e-001 	
        70.263	             	  4.230e-001 	
        70.272	  1.064e-001 	             	
        70.327	             	  4.230e-001 	
        70.336	  1.075e-001 	             	
        70.391	             	  4.230e-001 	
        70.400	  1.074e-001 	             	
        70.455	             	  4.230e-001 	
        70.464	  1.075e-001 	             	
        70.519	             	  4.230e-001 	
        70.528	  1.072e-001 	             	
        70.592	  1.076e-001 	             	
        70.615	             	  4.229e-001 	
        70.656	  1.078e-001 	             	
        70.679	             	  4.229e-001 	
        70.720	  1.088e-001 	             	
        70.743	             	  4.229e-001 	
        70.784	  1.077e-001 	             	
        70.807	             	  4.230e-001 	
        70.848	  1.068e-001 	             	
        70.871	             	  4.230e-001 	
        70.912	  1.069e-001 	             	
        70.935	             	  4.230e-001 	
        70.976	  1.066e-001 	             	
        70.999	             	  4.230e-001 	
        71.063	             	  4.229e-001 	
        71.072	  1.049e-001 	             	
        71.127	             	  4.229e-001 	
        71.136	  1.050e-001 	             	
        71.191	             	  4.228e-001 	
        71.200	  1.047e-001 	             	
        71.255	             	  4.228e-001 	
        71.264	  1.039e-001 	             	
        71.319	             	  4.227e-001 	
        71.328	  1.018e-001 	             	
        71.392	  9.800e-002 	             	
        71.415	             	  4.228e-001 	
        71.456	  9.470e-002 	             	
        71.479	             	  4.228e-001 	
        71.520	  9.390e-002 	             	
        71.543	             	  4.229e-001 	
        71.584	  9.260e-002 	             	
        71.607	             	  4.229e-001 	
        71.648	  9.010e-002 	             	
        71.671	             	  4.229e-001 	
        71.712	  8.680e-002 	             	
        71.735	             	  4.229e-001 	
        71.776	  8.400e-002 	             	
        71.799	             	  4.229e-001 	
        71.863	             	  4.229e-001 	
        71.872	  8.000e-002 	             	
        71.927	             	  4.229e-001 	
        71.936	  8.030e-002 	             	
        71.991	             	  4.229e-001 	
        72.000	  8.150e-002 	             	
        72.055	             	  4.230e-001 	
        72.064	  8.310e-002 	             	
        72.119	             	  4.231e-001 	
        72.128	  9.090e-002 	             	
        72.192	  9.350e-002 	             	
        72.215	             	  4.231e-001 	
        72.256	  9.300e-002 	             	
        72.279	             	  4.231e-001 	
        72.320	  9.110e-002 	             	
        72.343	             	  4.230e-001 	
        72.384	  9.150e-002 	             	
        72.407	             	  4.230e-001 	
        72.448	  9.120e-002 	             	
        72.471	             	  4.230e-001 	
        72.512	  9.140e-002 	             	
        72.535	             	  4.230e-001 	
        72.576	  9.140e-002 	             	
        72.599	             	  4.230e-001 	
        72.663	             	  4.230e-001 	
        72.672	  9.130e-002 	             	
        72.727	             	  4.229e-001 	
        72.736	  9.090e-002 	             	
        72.791	             	  4.229e-001 	
        72.800	  9.120e-002 	             	
        72.855	             	  4.229e-001 	
        72.864	  9.100e-002 	             	
        72.919	             	  4.229e-001 	
        72.928	  9.120e-002 	             	
        72.992	  9.030e-002 	             	
        73.015	             	  4.229e-001 	
        73.056	  8.950e-002 	             	
        73.079	             	  4.229e-001 	
        73.120	  8.710e-002 	             	
        73.143	             	  4.229e-001 	
        73.184	  8.650e-002 	             	
        73.207	             	  4.229e-001 	
        73.248	  8.730e-002 	             	
        73.271	             	  4.229e-001 	
        73.312	  8.770e-002 	             	
        73.335	             	  4.228e-001 	
        73.376	  8.790e-002 	             	
        73.399	             	  4.227e-001 	
        73.463	             	  4.226e-001 	
        73.472	  8.870e-002 	             	
        73.527	             	  4.226e-001 	
        73.536	  8.880e-002 	             	
        73.591	             	  4.226e-001 	
        73.600	  8.930e-002 	             	
        73.655	             	  4.227e-001 	
        73.664	  8.970e-002 	             	
        73.719	             	  4.227e-001 	
        73.728	  9.020e-002 	             	
        73.792	  9.090e-002 	             	
        73.815	             	  4.227e-001 	
        73.856	  9.170e-002 	             	
        73.879	             	  4.228e-001 	
        73.920	  9.220e-002 	             	
        73.943	             	  4.229e-001 	
        73.984	  9.360e-002 	             	
        74.007	             	  4.229e-001 	
        74.048	  9.350e-002 	             	
        74.071	             	  4.229e-001 	
        74.112	  9.330e-002 	             	
        74.135	             	  4.229e-001 	
        74.176	  9.220e-002 	             	
        74.199	             	  4.229e-001 	
        74.263	             	  4.229e-001 	
        74.272	  9.160e-002 	             	
        74.327	             	  4.229e-001 	
        74.336	  9.040e-002 	             	
        74.391	             	  4.229e-001 	
        74.400	  8.700e-002 	             	
        74.455	             	  4.229e-001 	
        74.464	  8.340e-002 	             	
        74.519	             	  4.228e-001 	
        74.528	  7.880e-002 	             	
        74.592	  7.550e-002 	             	
        74.615	             	  4.228e-001 	
        74.656	  7.300e-002 	             	
        74.679	             	  4.228e-001 	
        74.720	  7.310e-002 	             	
        74.743	             	  4.228e-001 	
        74.784	  7.550e-002 	             	
        74.807	             	  4.228e-001 	
        74.848	  7.960e-002 	             	
        74.871	             	  4.227e-001 	
        74.912	  8.400e-002 	             	
        74.935	             	  4.227e-001 	
        74.976	  8.860e-002 	             	
        74.999	             	  4.227e-001 	
        75.063	             	  4.226e-001 	
        75.072	  9.180e-002 	             	
        75.127	             	  4.226e-001 	
        75.136	  9.320e-002 	             	
        75.191	             	  4.226e-001 	
        75.200	  9.510e-002 	             	
        75.255	             	  4.227e-001 	
        75.264	  9.750e-002 	             	
        75.319	             	  4.228e-001 	
        75.328	  9.910e-002 	             	
        75.392	  1.000e-001 	             	
        75.415	             	  4.229e-001 	
        75.456	  1.000e-001 	             	
        75.479	             	  4.229e-001 	
        75.520	  1.003e-001 	             	
        75.543	             	  4.229e-001 	
        75.584	  1.006e-001 	             	
        75.607	             	  4.228e-001 	
        75.648	  1.008e-001 	             	
        75.671	             	  4.228e-001 	
        75.712	  1.009e-001 	             	
        75.735	             	  4.227e-001 	
        75.776	  1.010e-001 	             	
        75.799	             	  4.227e-001 	
        75.863	             	  4.226e-001 	
        75.872	  1.002e-001 	             	
        75.927	             	  4.226e-001 	
        75.936	  9.520e-002 	             	
        75.991	             	  4.226e-001 	
        76.000	  9.310e-002 	             	
        76.055	             	  4.227e-001 	
        76.064	  9.210e-002 	             	
        76.119	             	  4.227e-001 	
        76.128	  9.100e-002 	             	
        76.192	  9.020e-002 	             	
        76.215	             	  4.227e-001 	
        76.256	  8.970e-002 	             	
        76.279	             	  4.227e-001 	
        76.320	  9.230e-002 	             	
        76.343	             	  4.228e-001 	
        76.384	  9.050e-002 	             	
        76.407	             	  4.228e-001 	
        76.448	  8.930e-002 	             	
        76.471	             	  4.228e-001 	
        76.512	  8.920e-002 	             	
        76.535	             	  4.228e-001 	
        76.576	  8.920e-002 	             	
        76.599	             	  4.228e-001 	
        76.663	             	  4.227e-001 	
        76.672	  8.870e-002 	             	
        76.727	             	  4.228e-001 	
        76.736	  8.790e-002 	             	
        76.791	             	  4.227e-001 	
        76.800	  8.680e-002 	             	
        76.855	             	  4.227e-001 	
        76.864	  8.510e-002 	             	
        76.919	             	  4.227e-001 	
        76.928	  8.400e-002 	             	
        76.992	  8.150e-002 	             	
        77.015	             	  4.228e-001 	
        77.056	  8.110e-002 	             	
        77.079	             	  4.228e-001 	
        77.120	  8.060e-002 	             	
        77.143	             	  4.228e-001 	
        77.184	  7.950e-002 	             	
        77.207	             	  4.228e-001 	
        77.248	  7.930e-002 	             	
        77.271	             	  4.229e-001 	
        77.312	  7.920e-002 	             	
        77.335	             	  4.229e-001 	
        77.376	  8.050e-002 	             	
        77.399	             	  4.229e-001 	
        77.463	             	  4.229e-001 	
        77.472	  8.100e-002 	             	
        77.527	             	  4.229e-001 	
        77.536	  8.180e-002 	             	
        77.591	             	  4.230e-001 	
        77.600	  8.250e-002 	             	
        77.655	             	  4.231e-001 	
        77.664	  8.290e-002 	             	
        77.719	             	  4.231e-001 	
        77.728	  8.850e-002 	             	
        77.792	  8.920e-002 	             	
        77.815	             	  4.231e-001 	
        77.856	  8.820e-002 	             	
        77.879	             	  4.231e-001 	
        77.920	  8.230e-002 	             	
        77.943	             	  4.231e-001 	
        77.984	  8.100e-002 	             	
        78.007	             	  4.231e-001 	
        78.048	  8.060e-002 	             	
        78.071	             	  4.231e-001 	
        78.112	  8.110e-002 	             	
        78.135	             	  4.231e-001 	
        78.176	  8.100e-002 	             	
        78.199	             	  4.232e-001 	
        78.263	             	  4.232e-001 	
        78.272	  8.110e-002 	             	
        78.327	             	  4.232e-001 	
        78.336	  8.080e-002 	             	
        78.391	             	  4.232e-001 	
        78.400	  8.040e-002 	             	
        78.455	             	  4.232e-001 	
        78.464	  8.050e-002 	             	
        78.519	             	  4.232e-001 	
        78.528	  8.140e-002 	             	
        78.592	  8.250e-002 	             	
        78.615	             	  4.232e-001 	
        78.656	  8.290e-002 	             	
        78.679	             	  4.231e-001 	
        78.720	  8.160e-002 	             	
        78.743	             	  4.231e-001 	
        78.784	  8.090e-002 	             	
        78.806	             	  4.230e-001 	
        78.848	  8.110e-002 	             	
        78.871	             	  4.230e-001 	
        78.912	  8.260e-002 	             	
        78.935	             	  4.230e-001 	
        78.976	  8.370e-002 	             	
        78.999	             	  4.230e-001 	
        79.063	             	  4.230e-001 	
        79.072	  8.410e-002 	             	
        79.127	             	  4.230e-001 	
        79.136	  8.380e-002 	             	
        79.190	             	  4.230e-001 	
        79.200	  8.270e-002 	             	
        79.255	             	  4.230e-001 	
        79.264	  8.160e-002 	             	
        79.319	             	  4.230e-001 	
        79.328	  7.950e-002 	             	
        79.382	             	  4.230e-001 	
        79.392	  7.790e-002 	             	
        79.456	  7.680e-002 	             	
        79.478	             	  4.230e-001 	
        79.520	  7.520e-002 	             	
        79.542	             	  4.231e-001 	
        79.584	  7.420e-002 	             	
        79.606	             	  4.231e-001 	
        79.648	  7.260e-002 	             	
        79.670	             	  4.231e-001 	
        79.712	  7.190e-002 	             	
        79.734	             	  4.231e-001 	
        79.776	  7.160e-002 	             	
        79.798	             	  4.231e-001 	
        79.862	             	  4.231e-001 	
        79.872	  7.170e-002 	             	
        79.927	             	  4.231e-001 	
        79.936	  7.260e-002 	             	
        79.990	             	  4.231e-001 	
        80.000	  7.430e-002 	             	
        80.054	             	  4.231e-001 	
        80.064	  7.520e-002 	             	
        80.118	             	  4.231e-001 	
        80.128	  7.470e-002 	             	
        80.192	  7.440e-002 	             	
        80.214	             	  4.231e-001 	
        80.256	  7.550e-002 	             	
        80.278	             	  4.231e-001 	
        80.320	  7.670e-002 	             	
        80.342	             	  4.231e-001 	
        80.384	  7.880e-002 	             	
        80.406	             	  4.231e-001 	
        80.448	  7.940e-002 	             	
        80.470	             	  4.231e-001 	
        80.512	  7.970e-002 	             	
        80.534	             	  4.232e-001 	
        80.576	  8.070e-002 	             	
        80.598	             	  4.232e-001 	
        80.640	  8.130e-002 	             	
        80.662	             	  4.232e-001 	
        80.726	             	  4.232e-001 	
        80.736	  8.270e-002 	             	
        80.790	             	  4.232e-001 	
        80.800	  8.360e-002 	             	
        80.854	             	  4.232e-001 	
        80.864	  8.570e-002 	             	
        80.918	             	  4.232e-001 	
        80.928	  8.590e-002 	             	
        80.982	             	  4.232e-001 	
        80.992	  8.610e-002 	             	
        81.056	  8.620e-002 	             	
        81.078	             	  4.232e-001 	
        81.120	  8.610e-002 	             	
        81.142	             	  4.232e-001 	
        81.184	  8.680e-002 	             	
        81.206	             	  4.232e-001 	
        81.248	  8.740e-002 	             	
        81.270	             	  4.232e-001 	
        81.312	  8.860e-002 	             	
        81.334	             	  4.232e-001 	
        81.376	  8.820e-002 	             	
        81.398	             	  4.232e-001 	
        81.440	  8.770e-002 	             	
        81.462	             	  4.232e-001 	
        81.526	             	  4.232e-001 	
        81.536	  8.780e-002 	             	
        81.590	             	  4.232e-001 	
        81.600	  8.730e-002 	             	
        81.654	             	  4.232e-001 	
        81.664	  8.700e-002 	             	
        81.718	             	  4.232e-001 	
        81.728	  8.670e-002 	             	
        81.782	             	  4.231e-001 	
        81.792	  8.590e-002 	             	
        81.856	  8.490e-002 	             	
        81.878	             	  4.232e-001 	
        81.920	  8.320e-002 	             	
        81.942	             	  4.232e-001 	
        81.984	  8.110e-002 	             	
        82.006	             	  4.232e-001 	
        82.048	  8.030e-002 	             	
        82.070	             	  4.232e-001 	
        82.112	  7.990e-002 	             	
        82.134	             	  4.232e-001 	
        82.176	  7.950e-002 	             	
        82.198	             	  4.232e-001 	
        82.240	  7.890e-002 	             	
        82.262	             	  4.231e-001 	
        82.326	             	  4.231e-001 	
        82.336	  7.880e-002 	             	
        82.390	             	  4.231e-001 	
        82.400	  7.840e-002 	             	
        82.454	             	  4.230e-001 	
        82.464	  7.750e-002 	             	
        82.518	             	  4.231e-001 	
        82.528	  7.810e-002 	             	
        82.582	             	  4.231e-001 	
        82.592	  7.810e-002 	             	
        82.656	  7.830e-002 	             	
        82.678	             	  4.231e-001 	
        82.720	  7.900e-002 	             	
        82.742	             	  4.230e-001 	
        82.784	  7.940e-002 	             	
        82.806	             	  4.230e-001 	
        82.848	  8.000e-002 	             	
        82.870	             	  4.230e-001 	
        82.912	  8.120e-002 	             	
        82.934	             	  4.230e-001 	
        82.976	  8.150e-002 	             	
        82.998	             	  4.230e-001 	
        83.040	  7.800e-002 	             	
        83.062	             	  4.231e-001 	
        83.126	             	  4.231e-001 	
        83.136	  7.820e-002 	             	
        83.190	             	  4.232e-001 	
        83.200	  7.820e-002 	             	
        83.255	             	  4.232e-001 	
        83.264	  7.810e-002 	             	
        83.318	             	  4.231e-001 	
        83.328	  7.730e-002 	             	
        83.382	             	  4.231e-001 	
        83.392	  7.680e-002 	             	
        83.456	  7.710e-002 	             	
        83.478	             	  4.231e-001 	
        83.520	  7.740e-002 	             	
        83.542	             	  4.231e-001 	
        83.584	  7.660e-002 	             	
        83.606	             	  4.230e-001 	
        83.648	  7.630e-002 	             	
        83.670	             	  4.230e-001 	
        83.712	  7.550e-002 	             	
        83.734	             	  4.230e-001 	
        83.776	  7.590e-002 	             	
        83.798	             	  4.230e-001 	
        83.840	  7.570e-002 	             	
        83.862	             	  4.231e-001 	
        83.926	             	  4.232e-001 	
        83.936	  7.660e-002 	             	
        83.990	             	  4.232e-001 	
        84.000	  7.730e-002 	             	
        84.054	             	  4.232e-001 	
        84.064	  7.660e-002 	             	
        84.118	             	  4.232e-001 	
        84.128	  7.720e-002 	             	
        84.182	             	  4.231e-001 	
        84.192	  7.790e-002 	             	
        84.256	  7.830e-002 	             	
        84.278	             	  4.231e-001 	
        84.320	  7.850e-002 	             	
        84.342	             	  4.231e-001 	
        84.384	  7.880e-002 	             	
        84.406	             	  4.231e-001 	
        84.448	  7.850e-002 	             	
        84.470	             	  4.232e-001 	
        84.512	  7.870e-002 	             	
        84.534	             	  4.232e-001 	
        84.576	  7.870e-002 	             	
        84.598	             	  4.233e-001 	
        84.640	  7.860e-002 	             	
        84.662	             	  4.234e-001 	
        84.726	             	  4.234e-001 	
        84.736	  7.870e-002 	             	
        84.790	             	  4.235e-001 	
        84.800	  7.830e-002 	             	
        84.854	             	  4.235e-001 	
        84.864	  7.800e-002 	             	
        84.918	             	  4.235e-001 	
        84.927	  7.850e-002 	             	
        84.982	             	  4.235e-001 	
        84.992	  7.800e-002 	             	
        85.056	  7.780e-002 	             	
        85.078	             	  4.235e-001 	
        85.120	  7.760e-002 	             	
        85.142	             	  4.235e-001 	
        85.184	  7.800e-002 	             	
        85.206	             	  4.233e-001 	
        85.248	  7.780e-002 	             	
        85.270	             	  4.233e-001 	
        85.312	  7.830e-002 	             	
        85.334	             	  4.232e-001 	
        85.376	  7.860e-002 	             	
        85.398	             	  4.231e-001 	
        85.440	  8.000e-002 	             	
        85.462	             	  4.231e-001 	
        85.526	             	  4.231e-001 	
        85.535	  8.030e-002 	             	
        85.590	             	  4.231e-001 	
        85.599	  8.150e-002 	             	
        85.654	             	  4.230e-001 	
        85.663	  8.230e-002 	             	
        85.718	             	  4.229e-001 	
        85.727	  8.260e-002 	             	
        85.782	             	  4.230e-001 	
        85.792	  8.240e-002 	             	
        85.855	  8.290e-002 	             	
        85.878	             	  4.230e-001 	
        85.919	  8.360e-002 	             	
        85.942	             	  4.230e-001 	
        85.983	  8.430e-002 	             	
        86.006	             	  4.230e-001 	
        86.047	  8.520e-002 	             	
        86.070	             	  4.230e-001 	
        86.111	  8.510e-002 	             	
        86.134	             	  4.231e-001 	
        86.176	  8.550e-002 	             	
        86.198	             	  4.231e-001 	
        86.239	  8.570e-002 	             	
        86.262	             	  4.231e-001 	
        86.326	             	  4.231e-001 	
        86.335	  8.570e-002 	             	
        86.390	             	  4.231e-001 	
        86.399	  8.590e-002 	             	
        86.454	             	  4.231e-001 	
        86.464	  8.580e-002 	             	
        86.519	             	  4.232e-001 	
        86.528	  8.600e-002 	             	
        86.583	             	  4.231e-001 	
        86.592	  8.550e-002 	             	
        86.656	  8.550e-002 	             	
        86.679	             	  4.231e-001 	
        86.720	  8.570e-002 	             	
        86.743	             	  4.231e-001 	
        86.784	  8.620e-002 	             	
        86.807	             	  4.231e-001 	
        86.848	  8.620e-002 	             	
        86.871	             	  4.231e-001 	
        86.912	  8.600e-002 	             	
        86.935	             	  4.230e-001 	
        86.976	  8.610e-002 	             	
        86.999	             	  4.230e-001 	
        87.040	  8.540e-002 	             	
        87.063	             	  4.230e-001 	
        87.127	             	  4.230e-001 	
        87.136	  8.450e-002 	             	
        87.191	             	  4.231e-001 	
        87.200	  8.420e-002 	             	
        87.255	             	  4.232e-001 	
        87.264	  8.380e-002 	             	
        87.319	             	  4.232e-001 	
        87.328	  8.380e-002 	             	
        87.383	             	  4.232e-001 	
        87.392	  8.280e-002 	             	
        87.456	  8.280e-002 	             	
        87.479	             	  4.233e-001 	
        87.520	  8.250e-002 	             	
        87.543	             	  4.233e-001 	
        87.584	  8.160e-002 	             	
        87.607	             	  4.232e-001 	
        87.648	  8.150e-002 	             	
        87.671	             	  4.231e-001 	
        87.712	  8.110e-002 	             	
        87.735	             	  4.230e-001 	
        87.776	  8.060e-002 	             	
        87.799	             	  4.230e-001 	
        87.840	  8.030e-002 	             	
        87.863	             	  4.231e-001 	
        87.927	             	  4.232e-001 	
        87.936	  8.040e-002 	             	
        87.991	             	  4.232e-001 	
        88.000	  8.000e-002 	             	
        88.055	             	  4.232e-001 	
        88.064	  7.940e-002 	             	
        88.119	             	  4.232e-001 	
        88.128	  7.830e-002 	             	
        88.183	             	  4.232e-001 	
        88.192	  7.830e-002 	             	
        88.256	  7.810e-002 	             	
        88.279	             	  4.233e-001 	
        88.320	  7.870e-002 	             	
        88.343	             	  4.233e-001 	
        88.384	  7.810e-002 	             	
        88.407	             	  4.233e-001 	
        88.448	  7.730e-002 	             	
        88.471	             	  4.234e-001 	
        88.512	  7.730e-002 	             	
        88.535	             	  4.234e-001 	
        88.576	  7.720e-002 	             	
        88.599	             	  4.233e-001 	
        88.640	  7.690e-002 	             	
        88.663	             	  4.232e-001 	
        88.727	             	  4.231e-001 	
        88.736	  7.680e-002 	             	
        88.791	             	  4.230e-001 	
        88.800	  7.710e-002 	             	
        88.855	             	  4.230e-001 	
        88.864	  7.690e-002 	             	
        88.919	             	  4.229e-001 	
        88.928	  7.640e-002 	             	
        88.983	             	  4.229e-001 	
        88.992	  7.540e-002 	             	
        89.056	  7.420e-002 	             	
        89.079	             	  4.229e-001 	
        89.120	  7.410e-002 	             	
        89.143	             	  4.228e-001 	
        89.184	  7.450e-002 	             	
        89.207	             	  4.229e-001 	
        89.248	  7.560e-002 	             	
        89.271	             	  4.230e-001 	
        89.312	  7.570e-002 	             	
        89.335	             	  4.230e-001 	
        89.376	  7.610e-002 	             	
        89.399	             	  4.230e-001 	
        89.440	  7.700e-002 	             	
        89.463	             	  4.230e-001 	
        89.527	             	  4.229e-001 	
        89.536	  7.760e-002 	             	
        89.591	             	  4.230e-001 	
        89.600	  7.800e-002 	             	
        89.655	             	  4.231e-001 	
        89.664	  7.830e-002 	             	
        89.719	             	  4.231e-001 	
        89.728	  7.860e-002 	             	
        89.783	             	  4.232e-001 	
        89.792	  7.930e-002 	             	
        89.856	  7.960e-002 	             	
        89.879	             	  4.232e-001 	
        89.920	  7.930e-002 	             	
        89.943	             	  4.232e-001 	
        89.984	  7.990e-002 	             	
        90.007	             	  4.232e-001 	
        90.048	  8.010e-002 	             	
        90.071	             	  4.232e-001 	
        90.112	  8.050e-002 	             	
        90.135	             	  4.232e-001 	
        90.176	  8.080e-002 	             	
        90.199	             	  4.233e-001 	
        90.240	  8.100e-002 	             	
        90.263	             	  4.233e-001 	
        90.327	             	  4.232e-001 	
        90.336	  8.140e-002 	             	
        90.391	             	  4.232e-001 	
        90.400	  8.150e-002 	             	
        90.455	             	  4.232e-001 	
        90.464	  8.160e-002 	             	
        90.519	             	  4.233e-001 	
        90.528	  8.140e-002 	             	
        90.583	             	  4.233e-001 	
        90.592	  8.110e-002 	             	
        90.647	             	  4.233e-001 	
        90.656	  8.170e-002 	             	
        90.720	  8.180e-002 	             	
        90.743	             	  4.233e-001 	
        90.784	  8.240e-002 	             	
        90.807	             	  4.233e-001 	
        90.848	  8.310e-002 	             	
        90.871	             	  4.233e-001 	
        90.912	  8.330e-002 	             	
        90.935	             	  4.233e-001 	
        90.976	  8.360e-002 	             	
        90.999	             	  4.233e-001 	
        91.040	  8.370e-002 	             	
        91.063	             	  4.233e-001 	
        91.127	             	  4.233e-001 	
        91.136	  8.380e-002 	             	
        91.191	             	  4.233e-001 	
        91.200	  8.400e-002 	             	
        91.255	             	  4.233e-001 	
        91.264	  8.420e-002 	             	
        91.319	             	  4.234e-001 	
        91.328	  8.450e-002 	             	
        91.383	             	  4.234e-001 	
        91.392	  8.440e-002 	             	
        91.456	  8.460e-002 	             	
        91.479	             	  4.235e-001 	
        91.520	  8.510e-002 	             	
        91.543	             	  4.235e-001 	
        91.584	  8.460e-002 	             	
        91.607	             	  4.235e-001 	
        91.648	  8.490e-002 	             	
        91.671	             	  4.234e-001 	
        91.712	  8.500e-002 	             	
        91.735	             	  4.233e-001 	
        91.776	  8.530e-002 	             	
        91.799	             	  4.231e-001 	
        91.840	  8.500e-002 	             	
        91.863	             	  4.231e-001 	
        91.927	             	  4.231e-001 	
        91.936	  8.450e-002 	             	
        91.991	             	  4.232e-001 	
        92.000	  8.460e-002 	             	
        92.055	             	  4.234e-001 	
        92.064	  8.470e-002 	             	
        92.119	             	  4.234e-001 	
        92.128	  8.430e-002 	             	
        92.183	             	  4.233e-001 	
        92.192	  8.450e-002 	             	
        92.247	             	  4.232e-001 	
        92.256	  8.380e-002 	             	
        92.320	  8.380e-002 	             	
        92.343	             	  4.231e-001 	
        92.384	  8.320e-002 	             	
        92.407	             	  4.231e-001 	
        92.448	  8.340e-002 	             	
        92.471	             	  4.230e-001 	
        92.512	  8.300e-002 	             	
        92.535	             	  4.230e-001 	
        92.576	  8.270e-002 	             	
        92.599	             	  4.230e-001 	
        92.640	  8.220e-002 	             	
        92.663	             	  4.229e-001 	
        92.704	  8.200e-002 	             	
        92.727	             	  4.229e-001 	
        92.791	             	  4.229e-001 	
        92.800	  8.110e-002 	             	
        92.855	             	  4.229e-001 	
        92.864	  8.050e-002 	             	
        92.919	             	  4.230e-001 	
        92.928	  8.050e-002 	             	
        92.983	             	  4.230e-001 	
        92.992	  8.020e-002 	             	
        93.047	             	  4.230e-001 	
        93.056	  8.010e-002 	             	
        93.120	  8.020e-002 	             	
        93.143	             	  4.230e-001 	
        93.184	  7.990e-002 	             	
        93.207	             	  4.230e-001 	
        93.248	  7.970e-002 	             	
        93.271	             	  4.231e-001 	
        93.312	  7.890e-002 	             	
        93.335	             	  4.231e-001 	
        93.376	  7.800e-002 	             	
        93.399	             	  4.231e-001 	
        93.440	  7.840e-002 	             	
        93.463	             	  4.231e-001 	
        93.504	  7.780e-002 	             	
        93.527	             	  4.232e-001 	
        93.591	             	  4.232e-001 	
        93.600	  7.690e-002 	             	
        93.655	             	  4.233e-001 	
        93.664	  7.650e-002 	             	
        93.719	             	  4.233e-001 	
        93.728	  7.660e-002 	             	
        93.783	             	  4.232e-001 	
        93.792	  7.670e-002 	             	
        93.847	             	  4.230e-001 	
        93.856	  7.660e-002 	             	
        93.920	  7.700e-002 	             	
        93.943	             	  4.229e-001 	
        93.984	  7.690e-002 	             	
        94.007	             	  4.229e-001 	
        94.048	  7.670e-002 	             	
        94.071	             	  4.229e-001 	
        94.112	  7.580e-002 	             	
        94.135	             	  4.230e-001 	
        94.176	  7.540e-002 	             	
        94.199	             	  4.230e-001 	
        94.240	  7.450e-002 	             	
        94.263	             	  4.229e-001 	
        94.304	  7.260e-002 	             	
        94.327	             	  4.229e-001 	
        94.391	             	  4.229e-001 	
        94.400	  7.290e-002 	             	
        94.455	             	  4.229e-001 	
        94.464	  7.370e-002 	             	
        94.519	             	  4.230e-001 	
        94.528	  7.460e-002 	             	
        94.583	             	  4.230e-001 	
        94.592	  7.520e-002 	             	
        94.647	             	  4.231e-001 	
        94.656	  7.580e-002 	             	
        94.720	  7.660e-002 	             	
        94.743	             	  4.231e-001 	
        94.784	  7.710e-002 	             	
        94.807	             	  4.231e-001 	
        94.848	  7.740e-002 	             	
        94.871	             	  4.231e-001 	
        94.912	  7.820e-002 	             	
        94.935	             	  4.231e-001 	
        94.976	  7.810e-002 	             	
        94.999	             	  4.231e-001 	
        95.040	  7.830e-002 	             	
        95.063	             	  4.231e-001 	
        95.104	  7.910e-002 	             	
        95.127	             	  4.230e-001 	
        95.191	             	  4.230e-001 	
        95.200	  7.870e-002 	             	
        95.255	             	  4.230e-001 	
        95.265	  7.910e-002 	             	
        95.319	             	  4.231e-001 	
        95.328	  7.940e-002 	             	
        95.383	             	  4.231e-001 	
        95.392	  7.950e-002 	             	
        95.447	             	  4.231e-001 	
        95.456	  8.020e-002 	             	
        95.520	  8.040e-002 	             	
        95.543	             	  4.231e-001 	
        95.584	  8.060e-002 	             	
        95.607	             	  4.231e-001 	
        95.648	  8.030e-002 	             	
        95.671	             	  4.231e-001 	
        95.712	  8.050e-002 	             	
        95.735	             	  4.231e-001 	
        95.776	  8.090e-002 	             	
        95.799	             	  4.231e-001 	
        95.840	  8.140e-002 	             	
        95.863	             	  4.232e-001 	
        95.904	  8.180e-002 	             	
        95.927	             	  4.232e-001 	
        95.991	             	  4.231e-001 	
        96.000	  8.180e-002 	             	
        96.055	             	  4.231e-001 	
        96.064	  8.160e-002 	             	
        96.119	             	  4.231e-001 	
        96.128	  8.180e-002 	             	
        96.183	             	  4.231e-001 	
        96.192	  8.190e-002 	             	
        96.246	             	  4.230e-001 	
        96.256	  8.200e-002 	             	
        96.320	  8.190e-002 	             	
        96.342	             	  4.230e-001 	
        96.384	  8.130e-002 	             	
        96.406	             	  4.230e-001 	
        96.448	  8.120e-002 	             	
        96.471	             	  4.230e-001 	
        96.512	  8.160e-002 	             	
        96.535	             	  4.229e-001 	
        96.576	  8.160e-002 	             	
        96.598	             	  4.229e-001 	
        96.640	  8.170e-002 	             	
        96.662	             	  4.229e-001 	
        96.704	  8.150e-002 	             	
        96.727	             	  4.229e-001 	
        96.790	             	  4.229e-001 	
        96.800	  8.150e-002 	             	
        96.854	             	  4.229e-001 	
        96.864	  8.170e-002 	             	
        96.918	             	  4.230e-001 	
        96.928	  8.180e-002 	             	
        96.982	             	  4.230e-001 	
        96.992	  8.180e-002 	             	
        97.046	             	  4.231e-001 	
        97.056	  8.160e-002 	             	
        97.120	  8.160e-002 	             	
        97.143	             	  4.231e-001 	
        97.184	  8.220e-002 	             	
        97.206	             	  4.231e-001 	
        97.248	  8.150e-002 	             	
        97.270	             	  4.231e-001 	
        97.312	  8.120e-002 	             	
        97.334	             	  4.231e-001 	
        97.376	  8.110e-002 	             	
        97.398	             	  4.231e-001 	
        97.440	  8.070e-002 	             	
        97.463	             	  4.231e-001 	
        97.504	  8.110e-002 	             	
        97.526	             	  4.231e-001 	
        97.590	             	  4.231e-001 	
        97.600	  8.060e-002 	             	
        97.655	             	  4.230e-001 	
        97.664	  8.040e-002 	             	
        97.718	             	  4.230e-001 	
        97.728	  8.000e-002 	             	
        97.782	             	  4.230e-001 	
        97.792	  8.000e-002 	             	
        97.846	             	  4.229e-001 	
        97.856	  8.000e-002 	             	
        97.920	  7.990e-002 	             	
        97.942	             	  4.229e-001 	
        97.984	  7.960e-002 	             	
        98.006	             	  4.228e-001 	
        98.048	  7.910e-002 	             	
        98.070	             	  4.228e-001 	
        98.112	  7.910e-002 	             	
        98.134	             	  4.228e-001 	
        98.176	  7.830e-002 	             	
        98.198	             	  4.229e-001 	
        98.240	  7.840e-002 	             	
        98.262	             	  4.229e-001 	
        98.304	  7.850e-002 	             	
        98.326	             	  4.229e-001 	
        98.390	             	  4.229e-001 	
        98.400	  7.840e-002 	             	
        98.454	             	  4.228e-001 	
        98.464	  7.790e-002 	             	
        98.518	             	  4.228e-001 	
        98.528	  7.780e-002 	             	
        98.582	             	  4.228e-001 	
        98.592	  7.790e-002 	             	
        98.646	             	  4.228e-001 	
        98.656	  7.760e-002 	             	
        98.720	  7.770e-002 	             	
        98.742	             	  4.228e-001 	
        98.784	  7.760e-002 	             	
        98.806	             	  4.228e-001 	
        98.848	  7.740e-002 	             	
        98.870	             	  4.230e-001 	
        98.912	  7.690e-002 	             	
        98.934	             	  4.231e-001 	
        98.976	  7.720e-002 	             	
        98.998	             	  4.231e-001 	
        99.040	  7.720e-002 	             	
        99.062	             	  4.231e-001 	
        99.104	  7.700e-002 	             	
        99.127	             	  4.231e-001 	
        99.190	             	  4.231e-001 	
        99.200	  7.460e-002 	             	
        99.254	             	  4.231e-001 	
        99.264	  7.270e-002 	             	
        99.318	             	  4.231e-001 	
        99.328	  7.200e-002 	             	
        99.382	             	  4.231e-001 	
        99.392	  7.170e-002 	             	
        99.446	             	  4.231e-001 	
        99.456	  7.220e-002 	             	
        99.520	  7.240e-002 	             	
        99.542	             	  4.231e-001 	
        99.584	  7.320e-002 	             	
        99.606	             	  4.230e-001 	
        99.648	  7.360e-002 	             	
        99.670	             	  4.230e-001 	
        99.712	  7.400e-002 	             	
        99.734	             	  4.229e-001 	
        99.776	  7.490e-002 	             	
        99.798	             	  4.230e-001 	
        99.840	  7.500e-002 	             	
        99.862	             	  4.230e-001 	
        99.904	  7.520e-002 	             	
        99.926	             	  4.231e-001 	
        99.990	             	  4.232e-001 	
       100.000	  7.570e-002 	             	
       100.054	             	  4.232e-001 	
       100.064	  7.610e-002 	             	
       100.118	             	  4.232e-001 	
       100.128	  7.610e-002 	             	
       100.182	             	  4.232e-001 	
       100.192	  7.610e-002 	             	
       100.246	             	  4.232e-001 	
       100.256	  7.590e-002 	             	
       100.320	  7.570e-002 	             	
       100.342	             	  4.232e-001 	
       100.384	  7.640e-002 	             	
       100.406	             	  4.232e-001 	
       100.448	  7.670e-002 	             	
       100.470	             	  4.232e-001 	
       100.512	  7.720e-002 	             	
       100.534	             	  4.231e-001 	
       100.576	  7.750e-002 	             	
       100.598	             	  4.231e-001 	
       100.640	  7.770e-002 	             	
       100.662	             	  4.230e-001 	
       100.704	  7.750e-002 	             	
       100.726	             	  4.231e-001 	
       100.790	             	  4.231e-001 	
       100.800	  7.770e-002 	             	
       100.854	             	  4.231e-001 	
       100.864	  7.800e-002 	             	
       100.918	             	  4.231e-001 	
       100.928	  7.810e-002 	             	
       100.982	             	  4.231e-001 	
       100.992	  7.820e-002 	             	
       101.046	             	  4.232e-001 	
       101.056	  7.880e-002 	             	
       101.120	  7.890e-002 	             	
       101.142	             	  4.232e-001 	
       101.184	  7.890e-002 	             	
       101.206	             	  4.231e-001 	
       101.248	  7.910e-002 	             	
       101.270	             	  4.230e-001 	
       101.312	  7.910e-002 	             	
       101.334	             	  4.230e-001 	
       101.376	  7.890e-002 	             	
       101.398	             	  4.230e-001 	
       101.440	  7.910e-002 	             	
       101.462	             	  4.230e-001 	
       101.504	  7.900e-002 	             	
       101.526	             	  4.230e-001 	
       101.590	             	  4.231e-001 	
       101.600	  7.910e-002 	             	
       101.654	             	  4.232e-001 	
       101.664	  7.900e-002 	             	
       101.718	             	  4.232e-001 	
       101.728	  7.910e-002 	             	
       101.782	             	  4.232e-001 	
       101.792	  7.900e-002 	             	
       101.846	             	  4.232e-001 	
       101.856	  7.920e-002 	             	
       101.920	  7.920e-002 	             	
       101.942	             	  4.232e-001 	
       101.984	  7.930e-002 	             	
       102.006	             	  4.231e-001 	
       102.048	  7.940e-002 	             	
       102.070	             	  4.231e-001 	
       102.112	  7.940e-002 	             	
       102.134	             	  4.232e-001 	
       102.176	  7.910e-002 	             	
       102.198	             	  4.232e-001 	
       102.240	  7.910e-002 	             	
       102.262	             	  4.233e-001 	
       102.304	  7.930e-002 	             	
       102.326	             	  4.233e-001 	
       102.390	             	  4.233e-001 	
       102.400	  7.910e-002 	             	
       102.454	             	  4.232e-001 	
       102.464	  7.910e-002 	             	
       102.518	             	  4.232e-001 	
       102.528	  7.950e-002 	             	
       102.582	             	  4.232e-001 	
       102.592	  7.910e-002 	             	
       102.646	             	  4.232e-001 	
       102.656	  7.910e-002 	             	
       102.710	             	  4.232e-001 	
       102.719	  7.920e-002 	             	
       102.784	  7.920e-002 	             	
       102.806	             	  4.231e-001 	
       102.848	  7.950e-002 	             	
       102.870	             	  4.231e-001 	
       102.912	  7.920e-002 	             	
       102.934	             	  4.231e-001 	
       102.975	  7.910e-002 	             	
       102.998	             	  4.231e-001 	
       103.040	  7.880e-002 	             	
       103.062	             	  4.231e-001 	
       103.104	  7.840e-002 	             	
       103.126	             	  4.231e-001 	
       103.190	             	  4.232e-001 	
       103.200	  7.810e-002 	             	
       103.254	             	  4.232e-001 	
       103.263	  7.800e-002 	             	
       103.318	             	  4.232e-001 	
       103.327	  7.770e-002 	             	
       103.382	             	  4.232e-001 	
       103.391	  7.730e-002 	             	
       103.446	             	  4.231e-001 	
       103.455	  7.730e-002 	             	
       103.520	  7.740e-002 	             	
       103.542	             	  4.230e-001 	
       103.583	  7.720e-002 	             	
       103.606	             	  4.230e-001 	
       103.647	  7.660e-002 	             	
       103.670	             	  4.231e-001 	
       103.711	  7.590e-002 	             	
       103.734	             	  4.232e-001 	
       103.775	  7.500e-002 	             	
       103.798	             	  4.232e-001 	
       103.839	  7.480e-002 	             	
       103.862	             	  4.233e-001 	
       103.903	  7.520e-002 	             	
       103.926	             	  4.233e-001 	
       103.990	             	  4.233e-001 	
       104.000	  7.530e-002 	             	
       104.055	             	  4.233e-001 	
       104.064	  7.500e-002 	             	
       104.119	             	  4.233e-001 	
       104.128	  7.490e-002 	             	
       104.183	             	  4.233e-001 	
       104.192	  7.510e-002 	             	
       104.247	             	  4.232e-001 	
       104.256	  7.520e-002 	             	
       104.311	             	  4.231e-001 	
       104.320	  7.500e-002 	             	
       104.384	  7.500e-002 	             	
       104.407	             	  4.231e-001 	
       104.448	  7.520e-002 	             	
       104.471	             	  4.230e-001 	
       104.512	  7.500e-002 	             	
       104.535	             	  4.230e-001 	
       104.576	  7.450e-002 	             	
       104.599	             	  4.231e-001 	
       104.640	  7.480e-002 	             	
       104.663	             	  4.232e-001 	
       104.704	  7.320e-002 	             	
       104.727	             	  4.233e-001 	
       104.791	             	  4.233e-001 	
       104.800	  7.270e-002 	             	
       104.855	             	  4.232e-001 	
       104.864	  7.310e-002 	             	
       104.919	             	  4.231e-001 	
       104.928	  7.350e-002 	             	
       104.983	             	  4.231e-001 	
       104.992	  7.400e-002 	             	
       105.047	             	  4.230e-001 	
       105.056	  7.440e-002 	             	
       105.111	             	  4.229e-001 	
       105.120	  7.460e-002 	             	
       105.184	  7.470e-002 	             	
       105.207	             	  4.229e-001 	
       105.248	  7.460e-002 	             	
       105.271	             	  4.230e-001 	
       105.312	  7.480e-002 	             	
       105.335	             	  4.231e-001 	
       105.376	  7.460e-002 	             	
       105.399	             	  4.231e-001 	
       105.440	  7.470e-002 	             	
       105.463	             	  4.232e-001 	
       105.504	  7.430e-002 	             	
       105.527	             	  4.232e-001 	
       105.591	             	  4.232e-001 	
       105.600	  7.450e-002 	             	
       105.655	             	  4.232e-001 	
       105.664	  7.510e-002 	             	
       105.719	             	  4.232e-001 	
       105.728	  7.560e-002 	             	
