;PC Software:StarLab Version 2.10 Build 25
;Logged:23/09/2022 at 15:53:25
;File Version:3
;Graph Type:Line
;Notes:                                                            

;Channel A:Nova II Photodiode PD300-3W-v1 (s/n:763106)  NN2.52 (s/n:767396)
;Channel B:Vega Thermopile 10A-V1.1 (s/n:693380)  VG2.44 (s/n:858327)

;Channel A:Details
;Name:PD300-3W-v1
;Graph Color:RGB(0,102,255)
;Units:W
;Settings:Measuring:Power
;Settings:Wavelength:1064
;Settings:Range:AUTO
;Settings:Filter:IN

;Channel B:Details
;Name:10A-V1.1
;Graph Color:RGB(154,0,0)
;Units:W
;Settings:Measuring:Power
;Settings:Laser:.8-6
;Settings:Range:AUTO
;--------------------


;First Pulse Arrived : 23/09/2022 at 15:53:26.114000
  Timestamp   	  Channel A  	  Channel B  	
         0.000	  6.340e-002 	             	
         0.023	             	  4.457e-001 	
         0.087	             	  4.457e-001 	
         0.096	  6.320e-002 	             	
         0.151	             	  4.456e-001 	
         0.160	  6.320e-002 	             	
         0.215	             	  4.455e-001 	
         0.224	  6.330e-002 	             	
         0.279	             	  4.455e-001 	
         0.288	  6.350e-002 	             	
         0.343	             	  4.455e-001 	
         0.352	  6.320e-002 	             	
         0.416	  6.350e-002 	             	
         0.439	             	  4.455e-001 	
         0.480	  6.330e-002 	             	
         0.503	             	  4.456e-001 	
         0.544	  6.340e-002 	             	
         0.567	             	  4.455e-001 	
         0.608	  6.320e-002 	             	
         0.631	             	  4.455e-001 	
         0.672	  6.330e-002 	             	
         0.695	             	  4.454e-001 	
         0.736	  6.330e-002 	             	
         0.759	             	  4.454e-001 	
         0.800	  6.350e-002 	             	
         0.823	             	  4.454e-001 	
         0.887	             	  4.454e-001 	
         0.896	  6.340e-002 	             	
         0.951	             	  4.454e-001 	
         0.960	  6.330e-002 	             	
         1.015	             	  4.454e-001 	
         1.024	  6.340e-002 	             	
         1.079	             	  4.454e-001 	
         1.088	  6.320e-002 	             	
         1.143	             	  4.454e-001 	
         1.152	  6.340e-002 	             	
         1.216	  6.310e-002 	             	
         1.239	             	  4.454e-001 	
         1.280	  6.340e-002 	             	
         1.303	             	  4.454e-001 	
         1.344	  6.340e-002 	             	
         1.367	             	  4.454e-001 	
         1.408	  6.320e-002 	             	
         1.431	             	  4.453e-001 	
         1.472	  6.310e-002 	             	
         1.495	             	  4.453e-001 	
         1.536	  6.330e-002 	             	
         1.559	             	  4.452e-001 	
         1.600	  6.340e-002 	             	
         1.623	             	  4.452e-001 	
         1.664	  6.340e-002 	             	
         1.687	             	  4.453e-001 	
         1.751	             	  4.453e-001 	
         1.760	  6.330e-002 	             	
         1.815	             	  4.453e-001 	
         1.824	  6.330e-002 	             	
         1.879	             	  4.453e-001 	
         1.888	  6.320e-002 	             	
         1.943	             	  4.454e-001 	
         1.952	  6.350e-002 	             	
         2.016	  6.330e-002 	             	
         2.039	             	  4.454e-001 	
         2.080	  6.320e-002 	             	
         2.103	             	  4.454e-001 	
         2.144	  6.330e-002 	             	
         2.167	             	  4.454e-001 	
         2.208	  6.290e-002 	             	
         2.231	             	  4.454e-001 	
         2.272	  6.270e-002 	             	
         2.295	             	  4.455e-001 	
         2.336	  6.200e-002 	             	
         2.359	             	  4.454e-001 	
         2.400	  6.170e-002 	             	
         2.423	             	  4.455e-001 	
         2.464	  6.130e-002 	             	
         2.487	             	  4.455e-001 	
         2.551	             	  4.455e-001 	
         2.560	  6.110e-002 	             	
         2.615	             	  4.455e-001 	
         2.624	  6.080e-002 	             	
         2.679	             	  4.455e-001 	
         2.688	  6.090e-002 	             	
         2.743	             	  4.455e-001 	
         2.752	  6.090e-002 	             	
         2.816	  6.080e-002 	             	
         2.839	             	  4.455e-001 	
         2.880	  6.080e-002 	             	
         2.903	             	  4.456e-001 	
         2.944	  6.100e-002 	             	
         2.967	             	  4.456e-001 	
         3.008	  6.110e-002 	             	
         3.031	             	  4.456e-001 	
         3.072	  6.100e-002 	             	
         3.095	             	  4.456e-001 	
         3.136	  6.110e-002 	             	
         3.159	             	  4.456e-001 	
         3.200	  6.130e-002 	             	
         3.223	             	  4.456e-001 	
         3.264	  6.130e-002 	             	
         3.287	             	  4.456e-001 	
         3.351	             	  4.455e-001 	
         3.360	  6.130e-002 	             	
         3.415	             	  4.455e-001 	
         3.424	  6.140e-002 	             	
         3.479	             	  4.454e-001 	
         3.488	  6.150e-002 	             	
         3.543	             	  4.453e-001 	
         3.552	  6.120e-002 	             	
         3.616	  6.160e-002 	             	
         3.639	             	  4.453e-001 	
         3.680	  6.180e-002 	             	
         3.703	             	  4.452e-001 	
         3.744	  6.200e-002 	             	
         3.767	             	  4.451e-001 	
         3.808	  6.220e-002 	             	
         3.831	             	  4.452e-001 	
         3.872	  6.210e-002 	             	
         3.895	             	  4.452e-001 	
         3.936	  6.220e-002 	             	
         3.959	             	  4.452e-001 	
         4.000	  6.240e-002 	             	
         4.023	             	  4.453e-001 	
         4.064	  6.230e-002 	             	
         4.087	             	  4.454e-001 	
         4.151	             	  4.454e-001 	
         4.160	  6.270e-002 	             	
         4.215	             	  4.453e-001 	
         4.224	  6.250e-002 	             	
         4.279	             	  4.452e-001 	
         4.288	  6.260e-002 	             	
         4.343	             	  4.450e-001 	
         4.352	  6.280e-002 	             	
         4.416	  6.290e-002 	             	
         4.439	             	  4.450e-001 	
         4.480	  6.300e-002 	             	
         4.503	             	  4.450e-001 	
         4.544	  6.320e-002 	             	
         4.567	             	  4.451e-001 	
         4.608	  6.350e-002 	             	
         4.631	             	  4.451e-001 	
         4.672	  6.350e-002 	             	
         4.695	             	  4.452e-001 	
         4.736	  6.300e-002 	             	
         4.759	             	  4.452e-001 	
         4.800	  6.350e-002 	             	
         4.823	             	  4.453e-001 	
         4.864	  6.350e-002 	             	
         4.887	             	  4.454e-001 	
         4.951	             	  4.455e-001 	
         4.960	  6.310e-002 	             	
         5.015	             	  4.455e-001 	
         5.024	  6.290e-002 	             	
         5.079	             	  4.455e-001 	
         5.088	  6.300e-002 	             	
         5.143	             	  4.455e-001 	
         5.152	  6.270e-002 	             	
         5.216	  6.240e-002 	             	
         5.239	             	  4.455e-001 	
         5.280	  6.200e-002 	             	
         5.303	             	  4.454e-001 	
         5.344	  6.180e-002 	             	
         5.367	             	  4.454e-001 	
         5.408	  6.150e-002 	             	
         5.431	             	  4.454e-001 	
         5.472	  6.110e-002 	             	
         5.495	             	  4.455e-001 	
         5.536	  6.100e-002 	             	
         5.559	             	  4.455e-001 	
         5.600	  6.050e-002 	             	
         5.623	             	  4.455e-001 	
         5.664	  6.070e-002 	             	
         5.687	             	  4.454e-001 	
         5.751	             	  4.453e-001 	
         5.760	  6.040e-002 	             	
         5.815	             	  4.453e-001 	
         5.824	  6.020e-002 	             	
         5.879	             	  4.453e-001 	
         5.888	  6.010e-002 	             	
         5.942	             	  4.453e-001 	
         5.952	  5.990e-002 	             	
         6.016	  5.930e-002 	             	
         6.039	             	  4.453e-001 	
         6.080	  5.910e-002 	             	
         6.103	             	  4.453e-001 	
         6.144	  5.880e-002 	             	
         6.166	             	  4.453e-001 	
         6.208	  5.890e-002 	             	
         6.231	             	  4.452e-001 	
         6.272	  5.860e-002 	             	
         6.294	             	  4.452e-001 	
         6.336	  5.890e-002 	             	
         6.359	             	  4.452e-001 	
         6.400	  5.840e-002 	             	
         6.423	             	  4.451e-001 	
         6.464	  5.880e-002 	             	
         6.486	             	  4.451e-001 	
         6.551	             	  4.451e-001 	
         6.560	  5.860e-002 	             	
         6.614	             	  4.452e-001 	
         6.624	  5.860e-002 	             	
         6.678	             	  4.452e-001 	
         6.688	  5.860e-002 	             	
         6.742	             	  4.452e-001 	
         6.752	  5.860e-002 	             	
         6.816	  5.870e-002 	             	
         6.838	             	  4.451e-001 	
         6.880	  5.860e-002 	             	
         6.902	             	  4.451e-001 	
         6.944	  5.860e-002 	             	
         6.967	             	  4.451e-001 	
         7.008	  5.890e-002 	             	
         7.030	             	  4.452e-001 	
         7.072	  5.860e-002 	             	
         7.094	             	  4.453e-001 	
         7.136	  5.900e-002 	             	
         7.158	             	  4.453e-001 	
         7.200	  5.890e-002 	             	
         7.222	             	  4.453e-001 	
         7.264	  5.890e-002 	             	
         7.286	             	  4.453e-001 	
         7.350	             	  4.453e-001 	
         7.360	  5.890e-002 	             	
         7.414	             	  4.452e-001 	
         7.424	  5.880e-002 	             	
         7.478	             	  4.452e-001 	
         7.488	  5.880e-002 	             	
         7.542	             	  4.451e-001 	
         7.552	  5.880e-002 	             	
         7.616	  5.850e-002 	             	
         7.638	             	  4.451e-001 	
         7.680	  5.860e-002 	             	
         7.702	             	  4.451e-001 	
         7.744	  5.880e-002 	             	
         7.766	             	  4.450e-001 	
         7.808	  5.860e-002 	             	
         7.830	             	  4.450e-001 	
         7.872	  5.860e-002 	             	
         7.894	             	  4.450e-001 	
         7.936	  5.840e-002 	             	
         7.958	             	  4.451e-001 	
         8.000	  5.860e-002 	             	
         8.022	             	  4.451e-001 	
         8.064	  5.880e-002 	             	
         8.086	             	  4.452e-001 	
         8.150	             	  4.453e-001 	
         8.160	  5.850e-002 	             	
         8.214	             	  4.454e-001 	
         8.224	  5.840e-002 	             	
         8.278	             	  4.455e-001 	
         8.288	  5.860e-002 	             	
         8.342	             	  4.455e-001 	
         8.352	  5.860e-002 	             	
         8.416	  5.850e-002 	             	
         8.438	             	  4.456e-001 	
         8.480	  5.830e-002 	             	
         8.502	             	  4.457e-001 	
         8.544	  5.840e-002 	             	
         8.567	             	  4.457e-001 	
         8.608	  5.830e-002 	             	
         8.630	             	  4.457e-001 	
         8.672	  5.820e-002 	             	
         8.694	             	  4.457e-001 	
         8.736	  5.820e-002 	             	
         8.758	             	  4.456e-001 	
         8.800	  5.810e-002 	             	
         8.823	             	  4.456e-001 	
         8.864	  5.830e-002 	             	
         8.886	             	  4.456e-001 	
         8.950	             	  4.455e-001 	
         8.960	  5.820e-002 	             	
         9.014	             	  4.454e-001 	
         9.024	  5.850e-002 	             	
         9.078	             	  4.454e-001 	
         9.088	  5.820e-002 	             	
         9.142	             	  4.454e-001 	
         9.152	  5.840e-002 	             	
         9.216	  5.830e-002 	             	
         9.238	             	  4.454e-001 	
         9.280	  5.880e-002 	             	
         9.302	             	  4.454e-001 	
         9.344	  5.900e-002 	             	
         9.366	             	  4.454e-001 	
         9.408	  5.910e-002 	             	
         9.430	             	  4.454e-001 	
         9.472	  5.900e-002 	             	
         9.494	             	  4.455e-001 	
         9.536	  5.930e-002 	             	
         9.558	             	  4.455e-001 	
         9.600	  5.930e-002 	             	
         9.622	             	  4.454e-001 	
         9.664	  5.920e-002 	             	
         9.686	             	  4.455e-001 	
         9.750	             	  4.455e-001 	
         9.760	  5.910e-002 	             	
         9.814	             	  4.456e-001 	
         9.824	  5.940e-002 	             	
         9.878	             	  4.455e-001 	
         9.888	  5.950e-002 	             	
         9.942	             	  4.455e-001 	
         9.952	  5.940e-002 	             	
        10.016	  5.940e-002 	             	
        10.038	             	  4.455e-001 	
        10.080	  5.950e-002 	             	
        10.102	             	  4.455e-001 	
        10.144	  5.940e-002 	             	
        10.166	             	  4.455e-001 	
        10.208	  5.970e-002 	             	
        10.230	             	  4.455e-001 	
        10.272	  5.990e-002 	             	
        10.294	             	  4.456e-001 	
        10.336	  5.990e-002 	             	
        10.358	             	  4.456e-001 	
        10.400	  5.930e-002 	             	
        10.422	             	  4.455e-001 	
        10.464	  5.950e-002 	             	
        10.486	             	  4.455e-001 	
        10.550	             	  4.455e-001 	
        10.560	  5.940e-002 	             	
        10.614	             	  4.456e-001 	
        10.624	  5.930e-002 	             	
        10.678	             	  4.455e-001 	
        10.688	  5.930e-002 	             	
        10.742	             	  4.455e-001 	
        10.752	  5.920e-002 	             	
        10.816	  5.900e-002 	             	
        10.838	             	  4.455e-001 	
        10.880	  5.890e-002 	             	
        10.902	             	  4.455e-001 	
        10.944	  5.910e-002 	             	
        10.966	             	  4.455e-001 	
        11.008	  5.910e-002 	             	
        11.030	             	  4.455e-001 	
        11.072	  5.880e-002 	             	
        11.094	             	  4.455e-001 	
        11.136	  5.890e-002 	             	
        11.158	             	  4.455e-001 	
        11.200	  5.910e-002 	             	
        11.222	             	  4.455e-001 	
        11.264	  5.870e-002 	             	
        11.286	             	  4.454e-001 	
        11.350	             	  4.454e-001 	
        11.360	  5.930e-002 	             	
        11.414	             	  4.454e-001 	
        11.424	  5.920e-002 	             	
        11.478	             	  4.454e-001 	
        11.488	  5.900e-002 	             	
        11.542	             	  4.455e-001 	
        11.552	  5.890e-002 	             	
        11.606	             	  4.455e-001 	
        11.616	  5.880e-002 	             	
        11.680	  5.870e-002 	             	
        11.702	             	  4.456e-001 	
        11.744	  5.850e-002 	             	
        11.766	             	  4.456e-001 	
        11.808	  5.880e-002 	             	
        11.830	             	  4.457e-001 	
        11.872	  5.880e-002 	             	
        11.894	             	  4.456e-001 	
        11.936	  5.880e-002 	             	
        11.958	             	  4.456e-001 	
        12.000	  5.890e-002 	             	
        12.022	             	  4.455e-001 	
        12.064	  5.870e-002 	             	
        12.086	             	  4.454e-001 	
        12.150	             	  4.453e-001 	
        12.160	  5.870e-002 	             	
        12.214	             	  4.453e-001 	
        12.224	  5.880e-002 	             	
        12.278	             	  4.452e-001 	
        12.288	  5.890e-002 	             	
        12.342	             	  4.452e-001 	
        12.351	  5.900e-002 	             	
        12.406	             	  4.452e-001 	
        12.416	  5.910e-002 	             	
        12.480	  5.890e-002 	             	
        12.502	             	  4.453e-001 	
        12.543	  5.900e-002 	             	
        12.566	             	  4.453e-001 	
        12.607	  5.890e-002 	             	
        12.630	             	  4.454e-001 	
        12.672	  5.890e-002 	             	
        12.694	             	  4.454e-001 	
        12.735	  5.910e-002 	             	
        12.758	             	  4.454e-001 	
        12.800	  5.890e-002 	             	
        12.822	             	  4.453e-001 	
        12.863	  5.900e-002 	             	
        12.886	             	  4.454e-001 	
        12.950	             	  4.454e-001 	
        12.959	  5.890e-002 	             	
        13.014	             	  4.455e-001 	
        13.024	  5.890e-002 	             	
        13.078	             	  4.456e-001 	
        13.087	  5.890e-002 	             	
        13.142	             	  4.457e-001 	
        13.151	  5.870e-002 	             	
        13.206	             	  4.457e-001 	
        13.215	  5.880e-002 	             	
        13.279	  5.880e-002 	             	
        13.302	             	  4.458e-001 	
        13.343	  5.870e-002 	             	
        13.366	             	  4.457e-001 	
        13.407	  5.880e-002 	             	
        13.430	             	  4.457e-001 	
        13.472	  5.880e-002 	             	
        13.494	             	  4.456e-001 	
        13.535	  5.880e-002 	             	
        13.558	             	  4.456e-001 	
        13.599	  5.850e-002 	             	
        13.622	             	  4.456e-001 	
        13.663	  5.880e-002 	             	
        13.686	             	  4.456e-001 	
        13.750	             	  4.456e-001 	
        13.759	  5.860e-002 	             	
        13.814	             	  4.456e-001 	
        13.823	  5.870e-002 	             	
        13.878	             	  4.456e-001 	
        13.887	  5.870e-002 	             	
        13.942	             	  4.455e-001 	
        13.952	  5.870e-002 	             	
        14.006	             	  4.455e-001 	
        14.015	  5.860e-002 	             	
        14.079	  5.840e-002 	             	
        14.102	             	  4.454e-001 	
        14.143	  5.850e-002 	             	
        14.166	             	  4.454e-001 	
        14.208	  5.860e-002 	             	
        14.231	             	  4.454e-001 	
        14.272	  5.860e-002 	             	
        14.295	             	  4.453e-001 	
        14.336	  5.870e-002 	             	
        14.359	             	  4.452e-001 	
        14.400	  5.840e-002 	             	
        14.423	             	  4.452e-001 	
        14.464	  5.850e-002 	             	
        14.487	             	  4.452e-001 	
        14.528	  5.850e-002 	             	
        14.551	             	  4.451e-001 	
        14.615	             	  4.450e-001 	
        14.624	  5.830e-002 	             	
        14.679	             	  4.450e-001 	
        14.688	  5.830e-002 	             	
        14.743	             	  4.450e-001 	
        14.752	  5.850e-002 	             	
        14.807	             	  4.450e-001 	
        14.816	  5.850e-002 	             	
        14.880	  5.870e-002 	             	
        14.903	             	  4.451e-001 	
        14.944	  5.880e-002 	             	
        14.967	             	  4.451e-001 	
        15.008	  5.870e-002 	             	
        15.031	             	  4.452e-001 	
        15.072	  5.860e-002 	             	
        15.095	             	  4.452e-001 	
        15.136	  5.890e-002 	             	
        15.159	             	  4.452e-001 	
        15.200	  5.890e-002 	             	
        15.223	             	  4.452e-001 	
        15.264	  5.880e-002 	             	
        15.287	             	  4.452e-001 	
        15.328	  5.880e-002 	             	
        15.351	             	  4.451e-001 	
        15.415	             	  4.452e-001 	
        15.424	  5.880e-002 	             	
        15.479	             	  4.452e-001 	
        15.488	  5.880e-002 	             	
        15.543	             	  4.452e-001 	
        15.552	  5.850e-002 	             	
        15.607	             	  4.451e-001 	
        15.616	  5.890e-002 	             	
        15.680	  5.870e-002 	             	
        15.703	             	  4.451e-001 	
        15.744	  5.870e-002 	             	
        15.767	             	  4.451e-001 	
        15.808	  5.900e-002 	             	
        15.831	             	  4.452e-001 	
        15.872	  5.870e-002 	             	
        15.895	             	  4.452e-001 	
        15.936	  5.900e-002 	             	
        15.959	             	  4.453e-001 	
        16.000	  5.880e-002 	             	
        16.023	             	  4.453e-001 	
        16.064	  5.860e-002 	             	
        16.087	             	  4.454e-001 	
        16.128	  5.880e-002 	             	
        16.151	             	  4.454e-001 	
        16.215	             	  4.453e-001 	
        16.224	  5.890e-002 	             	
        16.279	             	  4.453e-001 	
        16.288	  5.870e-002 	             	
        16.343	             	  4.452e-001 	
        16.352	  5.850e-002 	             	
        16.407	             	  4.452e-001 	
        16.416	  5.840e-002 	             	
        16.480	  5.850e-002 	             	
        16.503	             	  4.452e-001 	
        16.544	  5.870e-002 	             	
        16.567	             	  4.453e-001 	
        16.608	  5.850e-002 	             	
        16.631	             	  4.453e-001 	
        16.672	  5.860e-002 	             	
        16.695	             	  4.453e-001 	
        16.736	  5.880e-002 	             	
        16.759	             	  4.452e-001 	
        16.800	  5.860e-002 	             	
        16.823	             	  4.451e-001 	
        16.864	  5.880e-002 	             	
        16.887	             	  4.450e-001 	
        16.928	  5.880e-002 	             	
        16.951	             	  4.450e-001 	
        17.015	             	  4.450e-001 	
        17.024	  5.880e-002 	             	
        17.079	             	  4.450e-001 	
        17.088	  5.890e-002 	             	
        17.143	             	  4.451e-001 	
        17.152	  5.880e-002 	             	
        17.207	             	  4.451e-001 	
        17.216	  5.870e-002 	             	
        17.280	  5.860e-002 	             	
        17.303	             	  4.452e-001 	
        17.344	  5.840e-002 	             	
        17.367	             	  4.452e-001 	
        17.408	  5.800e-002 	             	
        17.431	             	  4.452e-001 	
        17.472	  5.770e-002 	             	
        17.495	             	  4.452e-001 	
        17.536	  5.810e-002 	             	
        17.559	             	  4.450e-001 	
        17.600	  5.880e-002 	             	
        17.623	             	  4.449e-001 	
        17.664	  5.880e-002 	             	
        17.687	             	  4.448e-001 	
        17.728	  5.820e-002 	             	
        17.751	             	  4.447e-001 	
        17.815	             	  4.447e-001 	
        17.824	  5.810e-002 	             	
        17.879	             	  4.447e-001 	
        17.888	  5.790e-002 	             	
        17.943	             	  4.447e-001 	
        17.952	  5.800e-002 	             	
        18.007	             	  4.447e-001 	
        18.016	  5.820e-002 	             	
        18.080	  5.870e-002 	             	
        18.103	             	  4.446e-001 	
        18.144	  5.890e-002 	             	
        18.167	             	  4.444e-001 	
        18.208	  5.890e-002 	             	
        18.231	             	  4.443e-001 	
        18.272	  5.900e-002 	             	
        18.295	             	  4.444e-001 	
        18.336	  5.920e-002 	             	
        18.359	             	  4.445e-001 	
        18.400	  5.850e-002 	             	
        18.423	             	  4.447e-001 	
        18.464	  5.830e-002 	             	
        18.487	             	  4.448e-001 	
        18.529	  5.820e-002 	             	
        18.551	             	  4.450e-001 	
        18.615	             	  4.452e-001 	
        18.624	  5.880e-002 	             	
        18.679	             	  4.453e-001 	
        18.688	  5.910e-002 	             	
        18.743	             	  4.454e-001 	
        18.752	  5.900e-002 	             	
        18.807	             	  4.455e-001 	
        18.816	  5.930e-002 	             	
        18.880	  5.890e-002 	             	
        18.903	             	  4.456e-001 	
        18.944	  5.890e-002 	             	
        18.967	             	  4.456e-001 	
        19.008	  5.870e-002 	             	
        19.031	             	  4.456e-001 	
        19.072	  5.870e-002 	             	
        19.095	             	  4.456e-001 	
        19.136	  5.850e-002 	             	
        19.159	             	  4.455e-001 	
        19.200	  5.860e-002 	             	
        19.223	             	  4.453e-001 	
        19.264	  5.840e-002 	             	
        19.287	             	  4.452e-001 	
        19.328	  5.860e-002 	             	
        19.351	             	  4.450e-001 	
        19.415	             	  4.450e-001 	
        19.424	  5.850e-002 	             	
        19.479	             	  4.450e-001 	
        19.488	  5.840e-002 	             	
        19.543	             	  4.451e-001 	
        19.552	  5.830e-002 	             	
        19.607	             	  4.452e-001 	
        19.616	  5.830e-002 	             	
        19.680	  5.820e-002 	             	
        19.703	             	  4.453e-001 	
        19.744	  5.810e-002 	             	
        19.767	             	  4.454e-001 	
        19.808	  5.830e-002 	             	
        19.831	             	  4.455e-001 	
        19.872	  5.800e-002 	             	
        19.895	             	  4.455e-001 	
        19.936	  5.790e-002 	             	
        19.959	             	  4.455e-001 	
        20.000	  5.780e-002 	             	
        20.023	             	  4.455e-001 	
        20.064	  5.810e-002 	             	
        20.087	             	  4.455e-001 	
        20.128	  5.810e-002 	             	
        20.151	             	  4.454e-001 	
        20.215	             	  4.454e-001 	
        20.224	  5.810e-002 	             	
        20.279	             	  4.453e-001 	
        20.288	  5.810e-002 	             	
        20.343	             	  4.453e-001 	
        20.352	  5.820e-002 	             	
        20.407	             	  4.453e-001 	
        20.416	  5.800e-002 	             	
        20.480	  5.820e-002 	             	
        20.503	             	  4.454e-001 	
        20.544	  5.810e-002 	             	
        20.567	             	  4.454e-001 	
        20.608	  5.840e-002 	             	
        20.631	             	  4.453e-001 	
        20.672	  5.850e-002 	             	
        20.695	             	  4.453e-001 	
        20.736	  5.860e-002 	             	
        20.759	             	  4.453e-001 	
        20.800	  5.870e-002 	             	
        20.823	             	  4.453e-001 	
        20.864	  5.840e-002 	             	
        20.887	             	  4.453e-001 	
        20.928	  5.830e-002 	             	
        20.951	             	  4.454e-001 	
        21.015	             	  4.455e-001 	
        21.024	  5.830e-002 	             	
        21.079	             	  4.455e-001 	
        21.088	  5.840e-002 	             	
        21.143	             	  4.456e-001 	
        21.152	  5.820e-002 	             	
        21.207	             	  4.456e-001 	
        21.216	  5.820e-002 	             	
        21.280	  5.800e-002 	             	
        21.303	             	  4.456e-001 	
        21.344	  5.810e-002 	             	
        21.367	             	  4.456e-001 	
        21.408	  5.810e-002 	             	
        21.431	             	  4.456e-001 	
        21.472	  5.800e-002 	             	
        21.495	             	  4.457e-001 	
        21.536	  5.800e-002 	             	
        21.559	             	  4.457e-001 	
        21.600	  5.790e-002 	             	
        21.623	             	  4.456e-001 	
        21.664	  5.820e-002 	             	
        21.687	             	  4.456e-001 	
        21.728	  5.810e-002 	             	
        21.751	             	  4.455e-001 	
        21.815	             	  4.455e-001 	
        21.824	  5.810e-002 	             	
        21.879	             	  4.454e-001 	
        21.888	  5.820e-002 	             	
        21.943	             	  4.454e-001 	
        21.952	  5.830e-002 	             	
        22.007	             	  4.453e-001 	
        22.016	  5.850e-002 	             	
        22.080	  5.840e-002 	             	
        22.103	             	  4.453e-001 	
        22.144	  5.830e-002 	             	
        22.167	             	  4.454e-001 	
        22.208	  5.860e-002 	             	
        22.231	             	  4.454e-001 	
        22.272	  5.860e-002 	             	
        22.295	             	  4.454e-001 	
        22.336	  5.890e-002 	             	
        22.359	             	  4.455e-001 	
        22.400	  5.890e-002 	             	
        22.423	             	  4.456e-001 	
        22.464	  5.880e-002 	             	
        22.487	             	  4.456e-001 	
        22.528	  5.900e-002 	             	
        22.551	             	  4.456e-001 	
        22.615	             	  4.457e-001 	
        22.624	  5.870e-002 	             	
        22.679	             	  4.458e-001 	
        22.688	  5.890e-002 	             	
        22.743	             	  4.458e-001 	
        22.752	  5.860e-002 	             	
        22.807	             	  4.457e-001 	
        22.816	  5.850e-002 	             	
        22.880	  5.870e-002 	             	
        22.903	             	  4.457e-001 	
        22.944	  5.880e-002 	             	
        22.967	             	  4.456e-001 	
        23.008	  5.900e-002 	             	
        23.031	             	  4.456e-001 	
        23.072	  5.890e-002 	             	
        23.095	             	  4.455e-001 	
        23.136	  5.940e-002 	             	
        23.159	             	  4.455e-001 	
        23.200	  5.890e-002 	             	
        23.223	             	  4.455e-001 	
        23.264	  5.920e-002 	             	
        23.287	             	  4.456e-001 	
        23.328	  5.910e-002 	             	
        23.351	             	  4.456e-001 	
        23.415	             	  4.456e-001 	
        23.424	  5.930e-002 	             	
        23.479	             	  4.457e-001 	
        23.488	  5.920e-002 	             	
        23.543	             	  4.457e-001 	
        23.552	  5.920e-002 	             	
        23.607	             	  4.457e-001 	
        23.616	  5.930e-002 	             	
        23.680	  5.910e-002 	             	
        23.703	             	  4.456e-001 	
        23.744	  5.930e-002 	             	
        23.766	             	  4.455e-001 	
        23.808	  5.890e-002 	             	
        23.831	             	  4.455e-001 	
        23.872	  5.930e-002 	             	
        23.895	             	  4.455e-001 	
        23.936	  5.930e-002 	             	
        23.958	             	  4.455e-001 	
        24.000	  5.940e-002 	             	
        24.023	             	  4.455e-001 	
        24.064	  5.920e-002 	             	
        24.086	             	  4.455e-001 	
        24.128	  5.940e-002 	             	
        24.150	             	  4.455e-001 	
        24.214	             	  4.455e-001 	
        24.224	  5.920e-002 	             	
        24.278	             	  4.455e-001 	
        24.288	  5.910e-002 	             	
        24.343	             	  4.455e-001 	
        24.352	  5.900e-002 	             	
        24.406	             	  4.455e-001 	
        24.416	  5.890e-002 	             	
        24.471	             	  4.455e-001 	
        24.480	  5.870e-002 	             	
        24.544	  5.870e-002 	             	
        24.566	             	  4.455e-001 	
        24.608	  5.840e-002 	             	
        24.630	             	  4.455e-001 	
        24.672	  5.830e-002 	             	
        24.694	             	  4.455e-001 	
        24.736	  5.800e-002 	             	
        24.759	             	  4.455e-001 	
        24.800	  5.780e-002 	             	
        24.822	             	  4.456e-001 	
        24.864	  5.790e-002 	             	
        24.886	             	  4.456e-001 	
        24.928	  5.750e-002 	             	
        24.950	             	  4.455e-001 	
        25.014	             	  4.455e-001 	
        25.024	  5.770e-002 	             	
        25.078	             	  4.454e-001 	
        25.088	  5.780e-002 	             	
        25.142	             	  4.454e-001 	
        25.152	  5.760e-002 	             	
        25.206	             	  4.454e-001 	
        25.216	  5.770e-002 	             	
        25.270	             	  4.454e-001 	
        25.280	  5.760e-002 	             	
        25.344	  5.770e-002 	             	
        25.366	             	  4.454e-001 	
        25.408	  5.750e-002 	             	
        25.430	             	  4.453e-001 	
        25.472	  5.710e-002 	             	
        25.494	             	  4.453e-001 	
        25.536	  5.670e-002 	             	
        25.558	             	  4.453e-001 	
        25.600	  5.700e-002 	             	
        25.622	             	  4.453e-001 	
        25.664	  5.700e-002 	             	
        25.686	             	  4.452e-001 	
        25.728	  5.710e-002 	             	
        25.750	             	  4.451e-001 	
        25.814	             	  4.451e-001 	
        25.824	  5.670e-002 	             	
        25.878	             	  4.451e-001 	
        25.888	  5.700e-002 	             	
        25.942	             	  4.451e-001 	
        25.952	  5.670e-002 	             	
        26.006	             	  4.451e-001 	
        26.016	  5.700e-002 	             	
        26.070	             	  4.451e-001 	
        26.080	  5.670e-002 	             	
        26.144	  5.710e-002 	             	
        26.166	             	  4.451e-001 	
        26.208	  5.730e-002 	             	
        26.230	             	  4.452e-001 	
        26.272	  5.720e-002 	             	
        26.294	             	  4.452e-001 	
        26.336	  5.710e-002 	             	
        26.358	             	  4.452e-001 	
        26.400	  5.680e-002 	             	
        26.422	             	  4.451e-001 	
        26.464	  5.690e-002 	             	
        26.486	             	  4.451e-001 	
        26.528	  5.700e-002 	             	
        26.550	             	  4.451e-001 	
        26.614	             	  4.450e-001 	
        26.624	  5.680e-002 	             	
        26.679	             	  4.449e-001 	
        26.688	  5.720e-002 	             	
        26.742	             	  4.449e-001 	
        26.752	  5.700e-002 	             	
        26.806	             	  4.448e-001 	
        26.816	  5.710e-002 	             	
        26.870	             	  4.447e-001 	
        26.880	  5.720e-002 	             	
        26.944	  5.730e-002 	             	
        26.966	             	  4.447e-001 	
        27.008	  5.750e-002 	             	
        27.030	             	  4.447e-001 	
        27.072	  5.750e-002 	             	
        27.094	             	  4.447e-001 	
        27.136	  5.740e-002 	             	
        27.158	             	  4.447e-001 	
        27.200	  5.740e-002 	             	
        27.222	             	  4.447e-001 	
        27.264	  5.750e-002 	             	
        27.286	             	  4.447e-001 	
        27.328	  5.750e-002 	             	
        27.350	             	  4.446e-001 	
        27.414	             	  4.445e-001 	
        27.424	  5.760e-002 	             	
        27.478	             	  4.444e-001 	
        27.488	  5.760e-002 	             	
        27.542	             	  4.444e-001 	
        27.552	  5.760e-002 	             	
        27.606	             	  4.444e-001 	
        27.616	  5.800e-002 	             	
        27.670	             	  4.444e-001 	
        27.680	  5.790e-002 	             	
        27.744	  5.820e-002 	             	
        27.766	             	  4.444e-001 	
        27.808	  5.830e-002 	             	
        27.830	             	  4.444e-001 	
        27.872	  5.820e-002 	             	
        27.894	             	  4.445e-001 	
        27.936	  5.820e-002 	             	
        27.958	             	  4.445e-001 	
        28.000	  5.830e-002 	             	
        28.022	             	  4.445e-001 	
        28.064	  5.860e-002 	             	
        28.086	             	  4.444e-001 	
        28.128	  5.860e-002 	             	
        28.150	             	  4.443e-001 	
        28.192	  5.880e-002 	             	
        28.214	             	  4.444e-001 	
        28.278	             	  4.445e-001 	
        28.288	  5.890e-002 	             	
        28.342	             	  4.445e-001 	
        28.352	  5.900e-002 	             	
        28.406	             	  4.445e-001 	
        28.416	  5.880e-002 	             	
        28.470	             	  4.446e-001 	
        28.480	  5.910e-002 	             	
        28.544	  5.890e-002 	             	
        28.566	             	  4.446e-001 	
        28.608	  5.870e-002 	             	
        28.630	             	  4.446e-001 	
        28.672	  5.920e-002 	             	
        28.694	             	  4.445e-001 	
        28.736	  5.900e-002 	             	
        28.758	             	  4.445e-001 	
        28.800	  5.930e-002 	             	
        28.822	             	  4.445e-001 	
        28.864	  5.920e-002 	             	
        28.886	             	  4.446e-001 	
        28.928	  5.930e-002 	             	
        28.950	             	  4.446e-001 	
        28.992	  5.900e-002 	             	
        29.014	             	  4.447e-001 	
        29.078	             	  4.447e-001 	
        29.088	  5.910e-002 	             	
        29.142	             	  4.448e-001 	
        29.152	  5.930e-002 	             	
        29.206	             	  4.448e-001 	
        29.216	  5.950e-002 	             	
        29.270	             	  4.448e-001 	
        29.280	  5.930e-002 	             	
        29.344	  5.900e-002 	             	
        29.366	             	  4.447e-001 	
        29.407	  5.900e-002 	             	
        29.430	             	  4.448e-001 	
        29.472	  5.880e-002 	             	
        29.494	             	  4.448e-001 	
        29.536	  5.880e-002 	             	
        29.558	             	  4.448e-001 	
        29.600	  5.880e-002 	             	
        29.622	             	  4.449e-001 	
        29.663	  5.850e-002 	             	
        29.686	             	  4.450e-001 	
        29.728	  5.840e-002 	             	
        29.750	             	  4.450e-001 	
        29.792	  5.820e-002 	             	
        29.814	             	  4.450e-001 	
        29.878	             	  4.449e-001 	
        29.888	  5.810e-002 	             	
        29.942	             	  4.448e-001 	
        29.952	  5.790e-002 	             	
        30.006	             	  4.447e-001 	
        30.016	  5.780e-002 	             	
        30.070	             	  4.446e-001 	
        30.080	  5.770e-002 	             	
        30.144	  5.770e-002 	             	
        30.166	             	  4.446e-001 	
        30.208	  5.760e-002 	             	
        30.230	             	  4.445e-001 	
        30.272	  5.730e-002 	             	
        30.294	             	  4.445e-001 	
        30.336	  5.700e-002 	             	
        30.358	             	  4.445e-001 	
        30.399	  5.650e-002 	             	
        30.422	             	  4.444e-001 	
        30.463	  5.630e-002 	             	
        30.486	             	  4.444e-001 	
        30.528	  5.620e-002 	             	
        30.550	             	  4.444e-001 	
        30.591	  5.610e-002 	             	
        30.614	             	  4.444e-001 	
        30.678	             	  4.445e-001 	
        30.687	  5.580e-002 	             	
        30.742	             	  4.445e-001 	
        30.751	  5.580e-002 	             	
        30.806	             	  4.445e-001 	
        30.815	  5.570e-002 	             	
        30.870	             	  4.445e-001 	
        30.879	  5.580e-002 	             	
        30.943	  5.570e-002 	             	
        30.966	             	  4.445e-001 	
        31.007	  5.580e-002 	             	
        31.030	             	  4.445e-001 	
        31.071	  5.600e-002 	             	
        31.094	             	  4.445e-001 	
        31.135	  5.550e-002 	             	
        31.158	             	  4.445e-001 	
        31.199	  5.590e-002 	             	
        31.222	             	  4.445e-001 	
        31.263	  5.600e-002 	             	
        31.286	             	  4.445e-001 	
        31.327	  5.590e-002 	             	
        31.350	             	  4.445e-001 	
        31.391	  5.600e-002 	             	
        31.414	             	  4.445e-001 	
        31.478	             	  4.444e-001 	
        31.487	  5.610e-002 	             	
        31.542	             	  4.445e-001 	
        31.551	  5.610e-002 	             	
        31.606	             	  4.444e-001 	
        31.615	  5.580e-002 	             	
        31.671	             	  4.444e-001 	
        31.680	  5.550e-002 	             	
        31.744	  5.570e-002 	             	
        31.767	             	  4.444e-001 	
        31.808	  5.570e-002 	             	
        31.831	             	  4.444e-001 	
        31.872	  5.550e-002 	             	
        31.895	             	  4.443e-001 	
        31.936	  5.570e-002 	             	
        31.959	             	  4.443e-001 	
        32.000	  5.570e-002 	             	
        32.023	             	  4.443e-001 	
        32.064	  5.590e-002 	             	
        32.087	             	  4.443e-001 	
        32.128	  5.580e-002 	             	
        32.151	             	  4.444e-001 	
        32.192	  5.600e-002 	             	
        32.215	             	  4.444e-001 	
        32.279	             	  4.444e-001 	
        32.288	  5.620e-002 	             	
        32.343	             	  4.444e-001 	
        32.352	  5.630e-002 	             	
        32.407	             	  4.444e-001 	
        32.416	  5.640e-002 	             	
        32.471	             	  4.444e-001 	
        32.480	  5.660e-002 	             	
        32.544	  5.700e-002 	             	
        32.567	             	  4.444e-001 	
        32.608	  5.700e-002 	             	
        32.631	             	  4.444e-001 	
        32.672	  5.720e-002 	             	
        32.695	             	  4.444e-001 	
        32.736	  5.720e-002 	             	
        32.759	             	  4.443e-001 	
        32.800	  5.750e-002 	             	
        32.823	             	  4.443e-001 	
        32.864	  5.750e-002 	             	
        32.887	             	  4.443e-001 	
        32.928	  5.770e-002 	             	
        32.951	             	  4.444e-001 	
        32.992	  5.780e-002 	             	
        33.015	             	  4.444e-001 	
        33.079	             	  4.445e-001 	
        33.088	  5.780e-002 	             	
        33.143	             	  4.445e-001 	
        33.152	  5.780e-002 	             	
        33.207	             	  4.445e-001 	
        33.216	  5.800e-002 	             	
        33.271	             	  4.445e-001 	
        33.280	  5.790e-002 	             	
        33.344	  5.830e-002 	             	
        33.367	             	  4.445e-001 	
        33.408	  5.830e-002 	             	
        33.431	             	  4.444e-001 	
        33.472	  5.850e-002 	             	
        33.495	             	  4.444e-001 	
        33.536	  5.850e-002 	             	
        33.559	             	  4.442e-001 	
        33.600	  5.880e-002 	             	
        33.623	             	  4.442e-001 	
        33.664	  5.880e-002 	             	
        33.687	             	  4.441e-001 	
        33.728	  5.890e-002 	             	
        33.751	             	  4.441e-001 	
        33.792	  5.900e-002 	             	
        33.815	             	  4.441e-001 	
        33.879	             	  4.442e-001 	
        33.888	  5.880e-002 	             	
        33.943	             	  4.442e-001 	
        33.952	  5.910e-002 	             	
        34.007	             	  4.442e-001 	
        34.016	  5.910e-002 	             	
        34.071	             	  4.442e-001 	
        34.080	  5.900e-002 	             	
        34.144	  5.880e-002 	             	
        34.167	             	  4.443e-001 	
        34.208	  5.910e-002 	             	
        34.231	             	  4.443e-001 	
        34.272	  5.900e-002 	             	
        34.295	             	  4.443e-001 	
        34.336	  5.900e-002 	             	
        34.359	             	  4.443e-001 	
        34.400	  5.880e-002 	             	
        34.423	             	  4.442e-001 	
        34.464	  5.910e-002 	             	
        34.487	             	  4.442e-001 	
        34.528	  5.900e-002 	             	
        34.551	             	  4.441e-001 	
        34.592	  5.900e-002 	             	
        34.615	             	  4.441e-001 	
        34.679	             	  4.441e-001 	
        34.688	  5.880e-002 	             	
        34.743	             	  4.441e-001 	
        34.752	  5.840e-002 	             	
        34.807	             	  4.440e-001 	
        34.816	  5.810e-002 	             	
        34.871	             	  4.439e-001 	
        34.880	  5.760e-002 	             	
        34.944	  5.790e-002 	             	
        34.967	             	  4.439e-001 	
        35.008	  5.800e-002 	             	
        35.031	             	  4.439e-001 	
        35.072	  5.770e-002 	             	
        35.095	             	  4.439e-001 	
        35.136	  5.740e-002 	             	
        35.159	             	  4.440e-001 	
        35.200	  5.730e-002 	             	
        35.223	             	  4.440e-001 	
        35.264	  5.710e-002 	             	
        35.287	             	  4.440e-001 	
        35.328	  5.680e-002 	             	
        35.351	             	  4.441e-001 	
        35.392	  5.670e-002 	             	
        35.415	             	  4.441e-001 	
        35.479	             	  4.442e-001 	
        35.488	  5.670e-002 	             	
        35.543	             	  4.443e-001 	
        35.552	  5.650e-002 	             	
        35.607	             	  4.443e-001 	
        35.616	  5.640e-002 	             	
        35.671	             	  4.444e-001 	
        35.680	  5.640e-002 	             	
        35.744	  5.570e-002 	             	
        35.767	             	  4.445e-001 	
        35.808	  5.590e-002 	             	
        35.831	             	  4.444e-001 	
        35.872	  5.590e-002 	             	
        35.895	             	  4.445e-001 	
        35.936	  5.560e-002 	             	
        35.959	             	  4.444e-001 	
        36.000	  5.570e-002 	             	
        36.023	             	  4.445e-001 	
        36.064	  5.520e-002 	             	
        36.087	             	  4.444e-001 	
        36.128	  5.480e-002 	             	
        36.151	             	  4.444e-001 	
        36.192	  5.480e-002 	             	
        36.215	             	  4.444e-001 	
        36.279	             	  4.444e-001 	
        36.288	  5.480e-002 	             	
        36.343	             	  4.443e-001 	
        36.352	  5.450e-002 	             	
        36.407	             	  4.442e-001 	
        36.416	  5.440e-002 	             	
        36.471	             	  4.442e-001 	
        36.480	  5.430e-002 	             	
        36.535	             	  4.443e-001 	
        36.544	  5.410e-002 	             	
        36.608	  5.440e-002 	             	
        36.631	             	  4.444e-001 	
        36.672	  5.430e-002 	             	
        36.695	             	  4.444e-001 	
        36.736	  5.410e-002 	             	
        36.759	             	  4.445e-001 	
        36.800	  5.390e-002 	             	
        36.823	             	  4.444e-001 	
        36.864	  5.400e-002 	             	
        36.887	             	  4.444e-001 	
        36.928	  5.430e-002 	             	
        36.951	             	  4.444e-001 	
        36.992	  5.430e-002 	             	
        37.015	             	  4.443e-001 	
        37.079	             	  4.443e-001 	
        37.088	  5.440e-002 	             	
        37.143	             	  4.443e-001 	
        37.152	  5.430e-002 	             	
        37.207	             	  4.443e-001 	
        37.216	  5.430e-002 	             	
        37.271	             	  4.443e-001 	
        37.280	  5.430e-002 	             	
        37.335	             	  4.444e-001 	
        37.344	  5.470e-002 	             	
        37.408	  5.490e-002 	             	
        37.431	             	  4.444e-001 	
        37.472	  5.490e-002 	             	
        37.495	             	  4.444e-001 	
        37.536	  5.510e-002 	             	
        37.559	             	  4.444e-001 	
        37.600	  5.530e-002 	             	
        37.623	             	  4.444e-001 	
        37.664	  5.580e-002 	             	
        37.687	             	  4.443e-001 	
        37.728	  5.630e-002 	             	
        37.751	             	  4.442e-001 	
        37.792	  5.630e-002 	             	
        37.815	             	  4.441e-001 	
        37.879	             	  4.440e-001 	
        37.888	  5.670e-002 	             	
        37.943	             	  4.440e-001 	
        37.952	  5.710e-002 	             	
        38.007	             	  4.440e-001 	
        38.016	  5.740e-002 	             	
        38.071	             	  4.440e-001 	
        38.080	  5.790e-002 	             	
        38.135	             	  4.440e-001 	
        38.144	  5.790e-002 	             	
        38.208	  5.800e-002 	             	
        38.231	             	  4.440e-001 	
        38.272	  5.800e-002 	             	
        38.295	             	  4.440e-001 	
        38.336	  5.830e-002 	             	
        38.359	             	  4.439e-001 	
        38.400	  5.860e-002 	             	
        38.423	             	  4.440e-001 	
        38.464	  5.850e-002 	             	
        38.487	             	  4.442e-001 	
        38.528	  5.850e-002 	             	
        38.551	             	  4.443e-001 	
        38.592	  5.870e-002 	             	
        38.615	             	  4.443e-001 	
        38.679	             	  4.444e-001 	
        38.688	  5.860e-002 	             	
        38.743	             	  4.444e-001 	
        38.752	  5.870e-002 	             	
        38.807	             	  4.444e-001 	
        38.816	  5.870e-002 	             	
        38.871	             	  4.444e-001 	
        38.880	  5.910e-002 	             	
        38.935	             	  4.444e-001 	
        38.944	  5.900e-002 	             	
        39.008	  5.900e-002 	             	
        39.031	             	  4.444e-001 	
        39.072	  5.930e-002 	             	
        39.095	             	  4.444e-001 	
        39.136	  5.920e-002 	             	
        39.159	             	  4.443e-001 	
        39.200	  5.940e-002 	             	
        39.223	             	  4.443e-001 	
        39.264	  5.940e-002 	             	
        39.287	             	  4.442e-001 	
        39.328	  5.930e-002 	             	
        39.351	             	  4.442e-001 	
        39.392	  5.960e-002 	             	
        39.415	             	  4.442e-001 	
        39.479	             	  4.442e-001 	
        39.488	  5.950e-002 	             	
        39.543	             	  4.442e-001 	
        39.552	  5.950e-002 	             	
        39.607	             	  4.441e-001 	
        39.616	  5.960e-002 	             	
        39.671	             	  4.441e-001 	
        39.680	  5.940e-002 	             	
        39.735	             	  4.441e-001 	
        39.744	  5.940e-002 	             	
        39.808	  5.940e-002 	             	
        39.831	             	  4.441e-001 	
        39.872	  5.940e-002 	             	
        39.895	             	  4.441e-001 	
        39.936	  5.930e-002 	             	
        39.959	             	  4.442e-001 	
        40.000	  5.890e-002 	             	
        40.023	             	  4.442e-001 	
        40.064	  5.890e-002 	             	
        40.087	             	  4.443e-001 	
        40.128	  5.820e-002 	             	
        40.151	             	  4.443e-001 	
        40.192	  5.750e-002 	             	
        40.215	             	  4.443e-001 	
        40.279	             	  4.443e-001 	
        40.288	  5.710e-002 	             	
        40.343	             	  4.442e-001 	
        40.352	  5.700e-002 	             	
        40.407	             	  4.442e-001 	
        40.416	  5.710e-002 	             	
        40.471	             	  4.442e-001 	
        40.480	  5.680e-002 	             	
        40.535	             	  4.443e-001 	
        40.544	  5.620e-002 	             	
        40.608	  5.570e-002 	             	
        40.631	             	  4.443e-001 	
        40.672	  5.570e-002 	             	
        40.695	             	  4.443e-001 	
        40.736	  5.550e-002 	             	
        40.759	             	  4.443e-001 	
        40.800	  5.530e-002 	             	
        40.823	             	  4.443e-001 	
        40.864	  5.540e-002 	             	
        40.887	             	  4.442e-001 	
        40.928	  5.520e-002 	             	
        40.951	             	  4.442e-001 	
        40.992	  5.480e-002 	             	
        41.015	             	  4.441e-001 	
        41.056	  5.480e-002 	             	
        41.078	             	  4.441e-001 	
        41.143	             	  4.441e-001 	
        41.152	  5.460e-002 	             	
        41.207	             	  4.441e-001 	
        41.216	  5.440e-002 	             	
        41.271	             	  4.441e-001 	
        41.280	  5.360e-002 	             	
        41.335	             	  4.441e-001 	
        41.344	  5.320e-002 	             	
        41.408	  5.330e-002 	             	
        41.431	             	  4.441e-001 	
        41.472	  5.320e-002 	             	
        41.495	             	  4.442e-001 	
        41.536	  5.310e-002 	             	
        41.558	             	  4.442e-001 	
        41.600	  5.320e-002 	             	
        41.622	             	  4.443e-001 	
        41.664	  5.310e-002 	             	
        41.686	             	  4.443e-001 	
        41.728	  5.300e-002 	             	
        41.750	             	  4.445e-001 	
        41.792	  5.320e-002 	             	
        41.814	             	  4.445e-001 	
        41.878	             	  4.445e-001 	
        41.888	  5.290e-002 	             	
        41.943	             	  4.444e-001 	
        41.952	  5.290e-002 	             	
        42.006	             	  4.444e-001 	
        42.016	  5.270e-002 	             	
        42.070	             	  4.444e-001 	
        42.080	  5.250e-002 	             	
        42.135	             	  4.444e-001 	
        42.144	  5.250e-002 	             	
        42.208	  5.240e-002 	             	
        42.230	             	  4.443e-001 	
        42.272	  5.260e-002 	             	
        42.294	             	  4.443e-001 	
        42.336	  5.290e-002 	             	
        42.358	             	  4.443e-001 	
        42.400	  5.290e-002 	             	
        42.422	             	  4.443e-001 	
        42.464	  5.290e-002 	             	
        42.486	             	  4.443e-001 	
        42.528	  5.350e-002 	             	
        42.550	             	  4.443e-001 	
        42.592	  5.390e-002 	             	
        42.614	             	  4.443e-001 	
        42.656	  5.410e-002 	             	
        42.679	             	  4.444e-001 	
        42.742	             	  4.444e-001 	
        42.752	  5.460e-002 	             	
        42.806	             	  4.445e-001 	
        42.816	  5.520e-002 	             	
        42.871	             	  4.445e-001 	
        42.880	  5.540e-002 	             	
        42.935	             	  4.445e-001 	
        42.944	  5.580e-002 	             	
        43.008	  5.640e-002 	             	
        43.030	             	  4.445e-001 	
        43.072	  5.670e-002 	             	
        43.094	             	  4.445e-001 	
        43.136	  5.700e-002 	             	
        43.158	             	  4.446e-001 	
        43.200	  5.730e-002 	             	
        43.222	             	  4.446e-001 	
        43.264	  5.740e-002 	             	
        43.286	             	  4.446e-001 	
        43.328	  5.740e-002 	             	
        43.350	             	  4.445e-001 	
        43.392	  5.770e-002 	             	
        43.414	             	  4.445e-001 	
        43.456	  5.770e-002 	             	
        43.478	             	  4.444e-001 	
        43.542	             	  4.443e-001 	
        43.552	  5.810e-002 	             	
        43.606	             	  4.442e-001 	
        43.616	  5.840e-002 	             	
        43.670	             	  4.442e-001 	
        43.680	  5.860e-002 	             	
        43.734	             	  4.443e-001 	
        43.744	  5.860e-002 	             	
        43.808	  5.870e-002 	             	
        43.830	             	  4.442e-001 	
        43.872	  5.880e-002 	             	
        43.894	             	  4.442e-001 	
        43.936	  5.880e-002 	             	
        43.958	             	  4.442e-001 	
        44.000	  5.900e-002 	             	
        44.022	             	  4.442e-001 	
        44.064	  5.920e-002 	             	
        44.086	             	  4.443e-001 	
        44.128	  5.920e-002 	             	
        44.150	             	  4.443e-001 	
        44.192	  5.950e-002 	             	
        44.214	             	  4.443e-001 	
        44.256	  5.930e-002 	             	
        44.278	             	  4.443e-001 	
        44.342	             	  4.443e-001 	
        44.352	  5.940e-002 	             	
        44.406	             	  4.443e-001 	
        44.416	  5.950e-002 	             	
        44.470	             	  4.442e-001 	
        44.480	  5.930e-002 	             	
        44.534	             	  4.442e-001 	
        44.544	  5.960e-002 	             	
        44.608	  5.970e-002 	             	
        44.630	             	  4.443e-001 	
        44.672	  5.950e-002 	             	
        44.694	             	  4.443e-001 	
        44.736	  5.970e-002 	             	
        44.758	             	  4.443e-001 	
        44.800	  5.990e-002 	             	
        44.822	             	  4.443e-001 	
        44.864	  5.990e-002 	             	
        44.886	             	  4.443e-001 	
        44.928	  5.960e-002 	             	
        44.950	             	  4.443e-001 	
        44.992	  5.980e-002 	             	
        45.014	             	  4.443e-001 	
        45.056	  5.970e-002 	             	
        45.078	             	  4.442e-001 	
        45.142	             	  4.442e-001 	
        45.152	  5.980e-002 	             	
        45.206	             	  4.442e-001 	
        45.216	  5.940e-002 	             	
        45.270	             	  4.441e-001 	
        45.280	  5.930e-002 	             	
        45.334	             	  4.440e-001 	
        45.344	  5.920e-002 	             	
        45.408	  5.920e-002 	             	
        45.430	             	  4.440e-001 	
        45.472	  5.890e-002 	             	
        45.494	             	  4.441e-001 	
        45.536	  5.860e-002 	             	
        45.558	             	  4.442e-001 	
        45.600	  5.820e-002 	             	
        45.622	             	  4.443e-001 	
        45.664	  5.780e-002 	             	
        45.686	             	  4.443e-001 	
        45.728	  5.700e-002 	             	
        45.750	             	  4.443e-001 	
        45.792	  5.680e-002 	             	
        45.814	             	  4.443e-001 	
        45.856	  5.650e-002 	             	
        45.878	             	  4.443e-001 	
        45.942	             	  4.443e-001 	
        45.952	  5.600e-002 	             	
        46.006	             	  4.442e-001 	
        46.016	  5.560e-002 	             	
        46.070	             	  4.441e-001 	
        46.080	  5.550e-002 	             	
        46.134	             	  4.441e-001 	
        46.144	  5.530e-002 	             	
        46.208	  5.500e-002 	             	
        46.230	             	  4.441e-001 	
        46.272	  5.500e-002 	             	
        46.294	             	  4.441e-001 	
        46.336	  5.450e-002 	             	
        46.358	             	  4.441e-001 	
        46.400	  5.410e-002 	             	
        46.422	             	  4.441e-001 	
        46.464	  5.240e-002 	             	
        46.486	             	  4.440e-001 	
        46.528	  5.170e-002 	             	
        46.550	             	  4.441e-001 	
        46.592	  5.110e-002 	             	
        46.614	             	  4.441e-001 	
        46.656	  5.150e-002 	             	
        46.678	             	  4.442e-001 	
        46.742	             	  4.442e-001 	
        46.752	  5.110e-002 	             	
        46.806	             	  4.442e-001 	
        46.816	  5.070e-002 	             	
        46.870	             	  4.443e-001 	
        46.880	  5.090e-002 	             	
        46.934	             	  4.444e-001 	
        46.943	  5.060e-002 	             	
        47.008	  5.090e-002 	             	
        47.030	             	  4.444e-001 	
        47.072	  5.100e-002 	             	
        47.094	             	  4.444e-001 	
        47.136	  5.100e-002 	             	
        47.158	             	  4.444e-001 	
        47.200	  5.090e-002 	             	
        47.222	             	  4.444e-001 	
        47.264	  5.050e-002 	             	
        47.286	             	  4.444e-001 	
        47.328	  5.030e-002 	             	
        47.350	             	  4.443e-001 	
        47.392	  5.030e-002 	             	
        47.414	             	  4.443e-001 	
        47.456	  5.030e-002 	             	
        47.478	             	  4.442e-001 	
        47.542	             	  4.443e-001 	
        47.551	  5.050e-002 	             	
        47.606	             	  4.444e-001 	
        47.616	  5.060e-002 	             	
        47.670	             	  4.444e-001 	
        47.679	  5.090e-002 	             	
        47.734	             	  4.445e-001 	
        47.744	  5.120e-002 	             	
        47.808	  5.150e-002 	             	
        47.830	             	  4.445e-001 	
        47.871	  5.210e-002 	             	
        47.894	             	  4.445e-001 	
        47.936	  5.260e-002 	             	
        47.958	             	  4.445e-001 	
        47.999	  5.270e-002 	             	
        48.022	             	  4.445e-001 	
        48.063	  5.330e-002 	             	
        48.086	             	  4.445e-001 	
        48.128	  5.390e-002 	             	
        48.150	             	  4.445e-001 	
        48.191	  5.440e-002 	             	
        48.214	             	  4.445e-001 	
        48.255	  5.490e-002 	             	
        48.278	             	  4.445e-001 	
        48.342	             	  4.445e-001 	
        48.351	  5.550e-002 	             	
        48.406	             	  4.445e-001 	
        48.415	  5.570e-002 	             	
        48.470	             	  4.445e-001 	
        48.479	  5.630e-002 	             	
        48.534	             	  4.444e-001 	
        48.544	  5.660e-002 	             	
        48.607	  5.710e-002 	             	
        48.630	             	  4.444e-001 	
        48.671	  5.740e-002 	             	
        48.694	             	  4.445e-001 	
        48.735	  5.730e-002 	             	
        48.758	             	  4.445e-001 	
        48.800	  5.760e-002 	             	
        48.822	             	  4.444e-001 	
        48.863	  5.770e-002 	             	
        48.886	             	  4.444e-001 	
        48.928	  5.780e-002 	             	
        48.950	             	  4.444e-001 	
        48.991	  5.800e-002 	             	
        49.014	             	  4.444e-001 	
        49.056	  5.820e-002 	             	
        49.078	             	  4.444e-001 	
        49.143	             	  4.443e-001 	
        49.152	  5.830e-002 	             	
        49.207	             	  4.444e-001 	
        49.216	  5.810e-002 	             	
        49.271	             	  4.444e-001 	
        49.280	  5.780e-002 	             	
        49.335	             	  4.445e-001 	
        49.344	  5.830e-002 	             	
        49.399	             	  4.444e-001 	
        49.408	  5.850e-002 	             	
        49.472	  5.870e-002 	             	
        49.495	             	  4.444e-001 	
        49.536	  5.880e-002 	             	
        49.559	             	  4.443e-001 	
        49.600	  5.880e-002 	             	
        49.623	             	  4.442e-001 	
        49.664	  5.900e-002 	             	
        49.687	             	  4.442e-001 	
        49.728	  5.890e-002 	             	
        49.751	             	  4.442e-001 	
        49.792	  5.940e-002 	             	
        49.815	             	  4.442e-001 	
        49.856	  5.940e-002 	             	
        49.879	             	  4.442e-001 	
        49.943	             	  4.443e-001 	
        49.952	  5.920e-002 	             	
        50.007	             	  4.443e-001 	
        50.016	  5.930e-002 	             	
        50.071	             	  4.443e-001 	
        50.080	  5.930e-002 	             	
        50.135	             	  4.444e-001 	
        50.144	  5.950e-002 	             	
        50.199	             	  4.444e-001 	
        50.208	  5.970e-002 	             	
        50.272	  5.970e-002 	             	
        50.295	             	  4.444e-001 	
        50.336	  5.970e-002 	             	
        50.359	             	  4.443e-001 	
        50.400	  5.920e-002 	             	
        50.423	             	  4.443e-001 	
        50.464	  5.920e-002 	             	
        50.487	             	  4.444e-001 	
        50.528	  5.940e-002 	             	
        50.551	             	  4.443e-001 	
        50.592	  5.950e-002 	             	
        50.615	             	  4.443e-001 	
        50.656	  5.920e-002 	             	
        50.679	             	  4.443e-001 	
        50.743	             	  4.443e-001 	
        50.752	  5.890e-002 	             	
        50.807	             	  4.444e-001 	
        50.816	  5.870e-002 	             	
        50.871	             	  4.444e-001 	
        50.880	  5.740e-002 	             	
        50.935	             	  4.444e-001 	
        50.944	  5.640e-002 	             	
        50.999	             	  4.444e-001 	
        51.008	  5.610e-002 	             	
        51.073	  5.560e-002 	             	
        51.095	             	  4.445e-001 	
        51.136	  5.530e-002 	             	
        51.159	             	  4.446e-001 	
        51.200	  5.490e-002 	             	
        51.223	             	  4.446e-001 	
        51.264	  5.480e-002 	             	
        51.287	             	  4.446e-001 	
        51.328	  5.430e-002 	             	
        51.351	             	  4.445e-001 	
        51.392	  5.330e-002 	             	
        51.415	             	  4.446e-001 	
        51.456	  5.280e-002 	             	
        51.479	             	  4.446e-001 	
        51.543	             	  4.446e-001 	
        51.552	  5.260e-002 	             	
        51.607	             	  4.446e-001 	
        51.616	  5.140e-002 	             	
        51.671	             	  4.446e-001 	
        51.680	  4.980e-002 	             	
        51.735	             	  4.446e-001 	
        51.744	  4.910e-002 	             	
        51.799	             	  4.447e-001 	
        51.808	  4.840e-002 	             	
        51.872	  4.850e-002 	             	
        51.895	             	  4.448e-001 	
        51.936	  4.870e-002 	             	
        51.959	             	  4.447e-001 	
        52.000	  4.870e-002 	             	
        52.023	             	  4.447e-001 	
        52.064	  4.880e-002 	             	
        52.087	             	  4.447e-001 	
        52.128	  4.890e-002 	             	
        52.151	             	  4.447e-001 	
        52.192	  4.870e-002 	             	
        52.215	             	  4.447e-001 	
        52.256	  4.890e-002 	             	
        52.279	             	  4.446e-001 	
        52.343	             	  4.446e-001 	
        52.352	  4.890e-002 	             	
        52.407	             	  4.446e-001 	
        52.416	  4.900e-002 	             	
        52.471	             	  4.445e-001 	
        52.480	  4.910e-002 	             	
        52.535	             	  4.445e-001 	
        52.544	  4.940e-002 	             	
        52.599	             	  4.444e-001 	
        52.608	  4.950e-002 	             	
        52.672	  4.960e-002 	             	
        52.695	             	  4.443e-001 	
        52.736	  4.980e-002 	             	
        52.759	             	  4.444e-001 	
        52.800	  5.010e-002 	             	
        52.823	             	  4.444e-001 	
        52.864	  5.000e-002 	             	
        52.887	             	  4.444e-001 	
        52.928	  4.960e-002 	             	
        52.951	             	  4.445e-001 	
        52.992	  5.010e-002 	             	
        53.015	             	  4.445e-001 	
        53.056	  5.040e-002 	             	
        53.079	             	  4.446e-001 	
        53.143	             	  4.447e-001 	
        53.152	  5.090e-002 	             	
        53.207	             	  4.447e-001 	
        53.216	  5.140e-002 	             	
        53.271	             	  4.446e-001 	
        53.280	  5.200e-002 	             	
        53.335	             	  4.445e-001 	
        53.344	  5.260e-002 	             	
        53.399	             	  4.445e-001 	
        53.408	  5.330e-002 	             	
        53.472	  5.390e-002 	             	
        53.495	             	  4.445e-001 	
        53.536	  5.440e-002 	             	
        53.559	             	  4.445e-001 	
        53.600	  5.500e-002 	             	
        53.623	             	  4.445e-001 	
        53.664	  5.570e-002 	             	
        53.687	             	  4.446e-001 	
        53.728	  5.620e-002 	             	
        53.751	             	  4.447e-001 	
        53.792	  5.650e-002 	             	
        53.815	             	  4.447e-001 	
        53.856	  5.670e-002 	             	
        53.879	             	  4.447e-001 	
        53.920	  5.730e-002 	             	
        53.943	             	  4.446e-001 	
        54.007	             	  4.446e-001 	
        54.016	  5.760e-002 	             	
        54.071	             	  4.445e-001 	
        54.080	  5.810e-002 	             	
        54.135	             	  4.445e-001 	
        54.144	  5.780e-002 	             	
        54.199	             	  4.445e-001 	
        54.208	  5.810e-002 	             	
        54.272	  5.880e-002 	             	
        54.295	             	  4.445e-001 	
        54.336	  5.870e-002 	             	
        54.359	             	  4.445e-001 	
        54.400	  5.960e-002 	             	
        54.423	             	  4.445e-001 	
        54.464	  5.990e-002 	             	
        54.487	             	  4.445e-001 	
        54.528	  6.030e-002 	             	
        54.551	             	  4.445e-001 	
        54.592	  6.000e-002 	             	
        54.615	             	  4.445e-001 	
        54.656	  6.000e-002 	             	
        54.679	             	  4.446e-001 	
        54.720	  6.040e-002 	             	
        54.743	             	  4.446e-001 	
        54.807	             	  4.447e-001 	
        54.816	  6.060e-002 	             	
        54.871	             	  4.447e-001 	
        54.880	  6.120e-002 	             	
        54.935	             	  4.447e-001 	
        54.944	  6.140e-002 	             	
        54.999	             	  4.447e-001 	
        55.008	  6.170e-002 	             	
        55.072	  6.200e-002 	             	
        55.095	             	  4.447e-001 	
        55.136	  6.210e-002 	             	
        55.159	             	  4.446e-001 	
        55.200	  6.210e-002 	             	
        55.223	             	  4.446e-001 	
        55.264	  6.260e-002 	             	
        55.287	             	  4.446e-001 	
        55.328	  6.300e-002 	             	
        55.351	             	  4.447e-001 	
        55.392	  6.320e-002 	             	
        55.415	             	  4.446e-001 	
        55.456	  6.320e-002 	             	
        55.479	             	  4.445e-001 	
        55.520	  6.330e-002 	             	
        55.543	             	  4.445e-001 	
        55.607	             	  4.445e-001 	
        55.616	  6.350e-002 	             	
        55.671	             	  4.444e-001 	
        55.680	  6.460e-002 	             	
        55.735	             	  4.444e-001 	
        55.744	  6.420e-002 	             	
        55.799	             	  4.443e-001 	
        55.808	  6.380e-002 	             	
        55.872	  6.330e-002 	             	
        55.895	             	  4.443e-001 	
        55.936	  6.270e-002 	             	
        55.959	             	  4.443e-001 	
        56.000	  6.240e-002 	             	
        56.023	             	  4.444e-001 	
        56.064	  6.170e-002 	             	
        56.087	             	  4.444e-001 	
        56.128	  6.180e-002 	             	
        56.151	             	  4.444e-001 	
        56.192	  6.140e-002 	             	
        56.215	             	  4.444e-001 	
        56.256	  6.180e-002 	             	
        56.279	             	  4.445e-001 	
        56.320	  6.170e-002 	             	
        56.343	             	  4.445e-001 	
        56.407	             	  4.445e-001 	
        56.416	  6.150e-002 	             	
        56.471	             	  4.445e-001 	
        56.480	  6.170e-002 	             	
        56.535	             	  4.446e-001 	
        56.544	  6.190e-002 	             	
        56.599	             	  4.446e-001 	
        56.608	  6.220e-002 	             	
        56.672	  6.190e-002 	             	
        56.695	             	  4.446e-001 	
        56.736	  6.040e-002 	             	
        56.759	             	  4.445e-001 	
        56.800	  6.070e-002 	             	
        56.823	             	  4.444e-001 	
        56.864	  6.020e-002 	             	
        56.887	             	  4.444e-001 	
        56.928	  5.950e-002 	             	
        56.951	             	  4.444e-001 	
        56.992	  5.790e-002 	             	
        57.015	             	  4.444e-001 	
        57.056	  5.680e-002 	             	
        57.079	             	  4.444e-001 	
        57.120	  5.680e-002 	             	
        57.143	             	  4.445e-001 	
        57.207	             	  4.446e-001 	
        57.216	  5.630e-002 	             	
        57.271	             	  4.446e-001 	
        57.280	  5.650e-002 	             	
        57.335	             	  4.446e-001 	
        57.344	  5.620e-002 	             	
        57.399	             	  4.446e-001 	
        57.408	  5.630e-002 	             	
        57.472	  5.620e-002 	             	
        57.495	             	  4.446e-001 	
        57.536	  5.610e-002 	             	
        57.559	             	  4.446e-001 	
        57.600	  5.620e-002 	             	
        57.623	             	  4.446e-001 	
        57.664	  5.630e-002 	             	
        57.687	             	  4.446e-001 	
        57.728	  5.590e-002 	             	
        57.751	             	  4.445e-001 	
        57.792	  5.530e-002 	             	
        57.815	             	  4.444e-001 	
        57.856	  5.510e-002 	             	
        57.879	             	  4.443e-001 	
        57.920	  5.450e-002 	             	
        57.943	             	  4.444e-001 	
        58.007	             	  4.444e-001 	
        58.016	  5.480e-002 	             	
        58.071	             	  4.443e-001 	
        58.080	  5.440e-002 	             	
        58.135	             	  4.444e-001 	
        58.144	  5.500e-002 	             	
        58.199	             	  4.444e-001 	
        58.208	  5.500e-002 	             	
        58.272	  5.370e-002 	             	
        58.295	             	  4.444e-001 	
        58.336	  5.260e-002 	             	
        58.359	             	  4.446e-001 	
        58.400	  5.300e-002 	             	
        58.422	             	  4.446e-001 	
        58.464	  5.350e-002 	             	
        58.487	             	  4.447e-001 	
        58.528	  5.420e-002 	             	
        58.551	             	  4.447e-001 	
        58.592	  5.490e-002 	             	
        58.615	             	  4.447e-001 	
        58.656	  5.550e-002 	             	
        58.679	             	  4.447e-001 	
        58.720	  5.640e-002 	             	
        58.743	             	  4.446e-001 	
        58.807	             	  4.446e-001 	
        58.816	  5.720e-002 	             	
        58.871	             	  4.445e-001 	
        58.880	  5.810e-002 	             	
        58.934	             	  4.445e-001 	
        58.944	  5.870e-002 	             	
        58.998	             	  4.444e-001 	
        59.008	  5.920e-002 	             	
        59.072	  5.990e-002 	             	
        59.094	             	  4.443e-001 	
        59.136	  6.050e-002 	             	
        59.158	             	  4.443e-001 	
        59.200	  6.090e-002 	             	
        59.222	             	  4.443e-001 	
        59.264	  6.130e-002 	             	
        59.287	             	  4.444e-001 	
        59.328	  6.140e-002 	             	
        59.350	             	  4.444e-001 	
        59.392	  6.120e-002 	             	
        59.414	             	  4.444e-001 	
        59.456	  6.100e-002 	             	
        59.478	             	  4.444e-001 	
        59.520	  6.130e-002 	             	
        59.542	             	  4.443e-001 	
        59.606	             	  4.443e-001 	
        59.616	  6.150e-002 	             	
        59.670	             	  4.443e-001 	
        59.680	  6.170e-002 	             	
        59.734	             	  4.442e-001 	
        59.744	  6.210e-002 	             	
        59.798	             	  4.442e-001 	
        59.808	  6.240e-002 	             	
        59.872	  6.240e-002 	             	
        59.894	             	  4.443e-001 	
        59.936	  6.260e-002 	             	
        59.958	             	  4.444e-001 	
        60.000	  6.330e-002 	             	
        60.022	             	  4.444e-001 	
        60.064	  6.470e-002 	             	
        60.086	             	  4.444e-001 	
        60.128	  6.500e-002 	             	
        60.150	             	  4.444e-001 	
        60.192	  6.550e-002 	             	
        60.214	             	  4.445e-001 	
        60.256	  6.510e-002 	             	
        60.278	             	  4.445e-001 	
        60.320	  6.490e-002 	             	
        60.342	             	  4.446e-001 	
        60.406	             	  4.446e-001 	
        60.416	  6.520e-002 	             	
        60.470	             	  4.446e-001 	
        60.480	  6.590e-002 	             	
        60.535	             	  4.446e-001 	
        60.544	  6.590e-002 	             	
        60.598	             	  4.446e-001 	
        60.608	  6.690e-002 	             	
        60.672	  6.730e-002 	             	
        60.694	             	  4.446e-001 	
        60.736	  6.760e-002 	             	
        60.758	             	  4.446e-001 	
        60.800	  6.760e-002 	             	
        60.822	             	  4.446e-001 	
        60.864	  6.820e-002 	             	
        60.886	             	  4.446e-001 	
        60.928	  6.900e-002 	             	
        60.950	             	  4.445e-001 	
        60.992	  6.990e-002 	             	
        61.014	             	  4.445e-001 	
        61.056	  6.960e-002 	             	
        61.078	             	  4.445e-001 	
        61.120	  6.980e-002 	             	
        61.142	             	  4.444e-001 	
        61.206	             	  4.443e-001 	
        61.216	  6.980e-002 	             	
        61.270	             	  4.443e-001 	
        61.280	  6.970e-002 	             	
        61.334	             	  4.444e-001 	
        61.344	  7.020e-002 	             	
        61.398	             	  4.443e-001 	
        61.408	  7.020e-002 	             	
        61.472	  7.040e-002 	             	
        61.494	             	  4.443e-001 	
        61.536	  6.930e-002 	             	
        61.558	             	  4.443e-001 	
        61.600	  6.880e-002 	             	
        61.622	             	  4.444e-001 	
        61.664	  6.830e-002 	             	
        61.686	             	  4.444e-001 	
        61.728	  6.880e-002 	             	
        61.750	             	  4.444e-001 	
        61.792	  6.850e-002 	             	
        61.814	             	  4.444e-001 	
        61.856	  6.800e-002 	             	
        61.878	             	  4.444e-001 	
        61.920	  6.790e-002 	             	
        61.942	             	  4.444e-001 	
        62.006	             	  4.444e-001 	
        62.016	  6.720e-002 	             	
        62.070	             	  4.443e-001 	
        62.080	  6.550e-002 	             	
        62.134	             	  4.443e-001 	
        62.144	  6.430e-002 	             	
        62.198	             	  4.444e-001 	
        62.208	  6.430e-002 	             	
        62.262	             	  4.444e-001 	
        62.272	  6.460e-002 	             	
        62.336	  6.430e-002 	             	
        62.358	             	  4.444e-001 	
        62.400	  6.420e-002 	             	
        62.422	             	  4.443e-001 	
        62.464	  6.440e-002 	             	
        62.486	             	  4.444e-001 	
        62.528	  6.450e-002 	             	
        62.550	             	  4.444e-001 	
        62.592	  6.460e-002 	             	
        62.614	             	  4.444e-001 	
        62.656	  6.470e-002 	             	
        62.678	             	  4.443e-001 	
        62.720	  6.460e-002 	             	
        62.742	             	  4.442e-001 	
        62.806	             	  4.442e-001 	
        62.816	  6.330e-002 	             	
        62.870	             	  4.442e-001 	
        62.880	  6.280e-002 	             	
        62.934	             	  4.442e-001 	
        62.944	  6.210e-002 	             	
        62.998	             	  4.442e-001 	
        63.008	  5.960e-002 	             	
        63.062	             	  4.442e-001 	
        63.072	  5.800e-002 	             	
        63.136	  5.880e-002 	             	
        63.158	             	  4.443e-001 	
        63.200	  5.910e-002 	             	
        63.222	             	  4.444e-001 	
        63.264	  5.820e-002 	             	
        63.286	             	  4.444e-001 	
        63.328	  5.860e-002 	             	
        63.350	             	  4.443e-001 	
        63.392	  5.850e-002 	             	
        63.414	             	  4.444e-001 	
        63.456	  5.900e-002 	             	
        63.478	             	  4.444e-001 	
        63.520	  5.980e-002 	             	
        63.542	             	  4.443e-001 	
        63.606	             	  4.443e-001 	
        63.616	  6.070e-002 	             	
        63.670	             	  4.443e-001 	
        63.680	  6.140e-002 	             	
        63.734	             	  4.443e-001 	
        63.744	  6.290e-002 	             	
        63.798	             	  4.443e-001 	
        63.808	  6.290e-002 	             	
        63.862	             	  4.443e-001 	
        63.872	  6.300e-002 	             	
        63.935	  6.090e-002 	             	
        63.958	             	  4.443e-001 	
        64.000	  6.140e-002 	             	
        64.022	             	  4.442e-001 	
        64.063	  6.300e-002 	             	
        64.086	             	  4.441e-001 	
        64.128	  6.450e-002 	             	
        64.150	             	  4.441e-001 	
        64.192	  6.570e-002 	             	
        64.214	             	  4.442e-001 	
        64.256	  6.660e-002 	             	
        64.278	             	  4.442e-001 	
        64.320	  6.720e-002 	             	
        64.342	             	  4.443e-001 	
        64.406	             	  4.443e-001 	
        64.415	  6.730e-002 	             	
        64.470	             	  4.443e-001 	
        64.479	  6.720e-002 	             	
        64.534	             	  4.443e-001 	
        64.544	  6.710e-002 	             	
        64.598	             	  4.442e-001 	
        64.608	  6.660e-002 	             	
        64.662	             	  4.442e-001 	
        64.672	  6.650e-002 	             	
        64.736	  6.590e-002 	             	
        64.758	             	  4.442e-001 	
        64.800	  6.610e-002 	             	
        64.822	             	  4.443e-001 	
        64.864	  6.590e-002 	             	
        64.886	             	  4.443e-001 	
        64.928	  6.560e-002 	             	
        64.950	             	  4.444e-001 	
        64.992	  6.560e-002 	             	
        65.014	             	  4.445e-001 	
        65.056	  6.560e-002 	             	
        65.078	             	  4.445e-001 	
        65.120	  6.560e-002 	             	
        65.142	             	  4.444e-001 	
        65.206	             	  4.444e-001 	
        65.215	  6.540e-002 	             	
        65.270	             	  4.444e-001 	
        65.280	  6.620e-002 	             	
        65.334	             	  4.444e-001 	
        65.343	  6.640e-002 	             	
        65.398	             	  4.445e-001 	
        65.408	  6.680e-002 	             	
        65.462	             	  4.445e-001 	
        65.471	  6.690e-002 	             	
        65.536	  6.750e-002 	             	
        65.558	             	  4.446e-001 	
        65.599	  6.820e-002 	             	
        65.622	             	  4.446e-001 	
        65.663	  6.950e-002 	             	
        65.686	             	  4.446e-001 	
        65.727	  7.000e-002 	             	
        65.750	             	  4.445e-001 	
        65.791	  7.130e-002 	             	
        65.814	             	  4.445e-001 	
        65.855	  7.190e-002 	             	
        65.878	             	  4.445e-001 	
        65.919	  7.270e-002 	             	
        65.942	             	  4.446e-001 	
        66.006	             	  4.445e-001 	
        66.015	  7.340e-002 	             	
        66.070	             	  4.444e-001 	
        66.079	  7.410e-002 	             	
        66.134	             	  4.444e-001 	
        66.143	  7.460e-002 	             	
        66.198	             	  4.444e-001 	
        66.207	  7.490e-002 	             	
        66.262	             	  4.445e-001 	
        66.271	  7.540e-002 	             	
        66.335	  7.570e-002 	             	
        66.358	             	  4.445e-001 	
        66.399	  7.580e-002 	             	
        66.422	             	  4.445e-001 	
        66.463	  7.640e-002 	             	
        66.486	             	  4.446e-001 	
        66.527	  7.610e-002 	             	
        66.550	             	  4.446e-001 	
        66.591	  7.600e-002 	             	
        66.614	             	  4.447e-001 	
        66.656	  7.420e-002 	             	
        66.679	             	  4.446e-001 	
        66.720	  7.340e-002 	             	
        66.743	             	  4.446e-001 	
        66.807	             	  4.446e-001 	
        66.816	  7.250e-002 	             	
        66.871	             	  4.446e-001 	
        66.880	  7.030e-002 	             	
        66.935	             	  4.446e-001 	
        66.944	  6.960e-002 	             	
        66.999	             	  4.447e-001 	
        67.008	  6.930e-002 	             	
        67.063	             	  4.447e-001 	
        67.072	  6.890e-002 	             	
        67.136	  6.830e-002 	             	
        67.159	             	  4.447e-001 	
        67.200	  6.760e-002 	             	
        67.223	             	  4.448e-001 	
        67.264	  6.660e-002 	             	
        67.287	             	  4.448e-001 	
        67.328	  6.780e-002 	             	
        67.351	             	  4.448e-001 	
        67.392	  6.760e-002 	             	
        67.415	             	  4.448e-001 	
        67.456	  6.810e-002 	             	
        67.479	             	  4.448e-001 	
        67.520	  6.800e-002 	             	
        67.543	             	  4.448e-001 	
        67.584	  6.840e-002 	             	
        67.607	             	  4.447e-001 	
        67.671	             	  4.448e-001 	
        67.680	  6.860e-002 	             	
        67.735	             	  4.448e-001 	
        67.744	  6.880e-002 	             	
        67.799	             	  4.448e-001 	
        67.808	  6.890e-002 	             	
        67.863	             	  4.448e-001 	
        67.872	  6.920e-002 	             	
        67.936	  6.950e-002 	             	
        67.959	             	  4.447e-001 	
        68.000	  6.940e-002 	             	
        68.023	             	  4.447e-001 	
        68.064	  6.910e-002 	             	
        68.087	             	  4.447e-001 	
        68.128	  6.940e-002 	             	
        68.151	             	  4.448e-001 	
        68.192	  6.910e-002 	             	
        68.215	             	  4.448e-001 	
        68.256	  6.820e-002 	             	
        68.279	             	  4.449e-001 	
        68.320	  6.660e-002 	             	
        68.343	             	  4.449e-001 	
        68.384	  6.710e-002 	             	
        68.407	             	  4.449e-001 	
        68.471	             	  4.449e-001 	
        68.480	  6.710e-002 	             	
        68.535	             	  4.450e-001 	
        68.544	  6.760e-002 	             	
        68.599	             	  4.450e-001 	
        68.608	  6.690e-002 	             	
        68.663	             	  4.450e-001 	
        68.672	  6.740e-002 	             	
        68.736	  6.850e-002 	             	
        68.759	             	  4.450e-001 	
        68.800	  6.780e-002 	             	
        68.823	             	  4.450e-001 	
        68.864	  6.490e-002 	             	
        68.887	             	  4.450e-001 	
        68.928	  6.490e-002 	             	
        68.951	             	  4.449e-001 	
        68.992	  6.650e-002 	             	
        69.015	             	  4.449e-001 	
        69.056	  6.700e-002 	             	
        69.079	             	  4.448e-001 	
        69.120	  6.800e-002 	             	
        69.143	             	  4.447e-001 	
        69.184	  6.920e-002 	             	
        69.207	             	  4.445e-001 	
        69.271	             	  4.445e-001 	
        69.280	  7.010e-002 	             	
        69.335	             	  4.444e-001 	
        69.344	  7.090e-002 	             	
        69.399	             	  4.443e-001 	
        69.408	  7.160e-002 	             	
        69.463	             	  4.444e-001 	
        69.472	  7.150e-002 	             	
        69.536	  7.160e-002 	             	
        69.559	             	  4.446e-001 	
        69.600	  7.240e-002 	             	
        69.623	             	  4.446e-001 	
        69.664	  7.230e-002 	             	
        69.687	             	  4.447e-001 	
        69.728	  7.210e-002 	             	
        69.751	             	  4.448e-001 	
        69.792	  7.200e-002 	             	
        69.815	             	  4.447e-001 	
        69.856	  7.210e-002 	             	
        69.879	             	  4.447e-001 	
        69.920	  7.140e-002 	             	
        69.943	             	  4.447e-001 	
        69.984	  6.910e-002 	             	
        70.007	             	  4.447e-001 	
        70.071	             	  4.447e-001 	
        70.080	  6.680e-002 	             	
        70.135	             	  4.447e-001 	
        70.144	  6.410e-002 	             	
        70.199	             	  4.446e-001 	
        70.208	  6.170e-002 	             	
        70.263	             	  4.446e-001 	
        70.272	  6.110e-002 	             	
        70.336	  6.100e-002 	             	
        70.359	             	  4.447e-001 	
        70.400	  6.190e-002 	             	
        70.423	             	  4.448e-001 	
        70.464	  6.470e-002 	             	
        70.487	             	  4.448e-001 	
        70.528	  6.740e-002 	             	
        70.551	             	  4.448e-001 	
        70.592	  6.980e-002 	             	
        70.615	             	  4.448e-001 	
        70.656	  7.220e-002 	             	
        70.679	             	  4.447e-001 	
        70.720	  7.400e-002 	             	
        70.743	             	  4.447e-001 	
        70.784	  7.500e-002 	             	
        70.807	             	  4.446e-001 	
        70.871	             	  4.446e-001 	
        70.880	  7.630e-002 	             	
        70.935	             	  4.446e-001 	
        70.944	  7.690e-002 	             	
        70.999	             	  4.446e-001 	
        71.008	  7.760e-002 	             	
        71.063	             	  4.446e-001 	
        71.072	  7.820e-002 	             	
        71.136	  7.800e-002 	             	
        71.159	             	  4.447e-001 	
        71.200	  7.850e-002 	             	
        71.223	             	  4.447e-001 	
        71.264	  7.850e-002 	             	
        71.287	             	  4.447e-001 	
        71.328	  7.850e-002 	             	
        71.351	             	  4.447e-001 	
        71.392	  7.870e-002 	             	
        71.415	             	  4.447e-001 	
        71.456	  7.940e-002 	             	
        71.479	             	  4.447e-001 	
        71.520	  7.830e-002 	             	
        71.543	             	  4.447e-001 	
        71.584	  7.810e-002 	             	
        71.607	             	  4.448e-001 	
        71.671	             	  4.448e-001 	
        71.680	  7.870e-002 	             	
        71.735	             	  4.448e-001 	
        71.744	  7.810e-002 	             	
        71.799	             	  4.448e-001 	
        71.808	  7.830e-002 	             	
        71.863	             	  4.448e-001 	
        71.872	  7.880e-002 	             	
        71.936	  7.810e-002 	             	
        71.959	             	  4.449e-001 	
        72.000	  7.710e-002 	             	
        72.023	             	  4.450e-001 	
        72.064	  7.590e-002 	             	
        72.087	             	  4.450e-001 	
        72.128	  7.480e-002 	             	
        72.151	             	  4.450e-001 	
        72.192	  7.400e-002 	             	
        72.215	             	  4.450e-001 	
        72.256	  7.190e-002 	             	
        72.279	             	  4.450e-001 	
        72.320	  7.080e-002 	             	
        72.343	             	  4.449e-001 	
        72.384	  7.010e-002 	             	
        72.407	             	  4.449e-001 	
        72.471	             	  4.447e-001 	
        72.480	  6.880e-002 	             	
        72.535	             	  4.446e-001 	
        72.544	  6.770e-002 	             	
        72.599	             	  4.446e-001 	
        72.608	  6.620e-002 	             	
        72.663	             	  4.446e-001 	
        72.672	  6.400e-002 	             	
        72.736	  6.140e-002 	             	
        72.759	             	  4.447e-001 	
        72.800	  6.480e-002 	             	
        72.823	             	  4.448e-001 	
        72.864	  6.610e-002 	             	
        72.887	             	  4.448e-001 	
        72.928	  6.720e-002 	             	
        72.951	             	  4.448e-001 	
        72.992	  6.820e-002 	             	
        73.015	             	  4.447e-001 	
        73.056	  6.980e-002 	             	
        73.079	             	  4.447e-001 	
        73.120	  7.040e-002 	             	
        73.143	             	  4.447e-001 	
        73.184	  7.050e-002 	             	
        73.207	             	  4.446e-001 	
        73.271	             	  4.446e-001 	
        73.280	  7.090e-002 	             	
        73.335	             	  4.447e-001 	
        73.344	  7.020e-002 	             	
        73.399	             	  4.447e-001 	
        73.408	  7.020e-002 	             	
        73.463	             	  4.448e-001 	
        73.472	  6.720e-002 	             	
        73.536	  6.380e-002 	             	
        73.559	             	  4.448e-001 	
        73.600	  6.370e-002 	             	
        73.623	             	  4.449e-001 	
        73.664	  6.360e-002 	             	
        73.687	             	  4.450e-001 	
        73.728	  6.380e-002 	             	
        73.751	             	  4.451e-001 	
        73.792	  6.420e-002 	             	
        73.815	             	  4.451e-001 	
        73.856	  6.420e-002 	             	
        73.879	             	  4.452e-001 	
        73.920	  6.420e-002 	             	
        73.943	             	  4.452e-001 	
        73.984	  6.410e-002 	             	
        74.007	             	  4.451e-001 	
        74.071	             	  4.450e-001 	
        74.080	  6.380e-002 	             	
        74.135	             	  4.449e-001 	
        74.144	  6.410e-002 	             	
        74.199	             	  4.450e-001 	
        74.208	  6.410e-002 	             	
        74.263	             	  4.449e-001 	
        74.272	  6.400e-002 	             	
        74.336	  6.390e-002 	             	
        74.359	             	  4.449e-001 	
        74.400	  6.450e-002 	             	
        74.423	             	  4.449e-001 	
        74.464	  6.520e-002 	             	
        74.487	             	  4.448e-001 	
        74.528	  6.570e-002 	             	
        74.551	             	  4.448e-001 	
        74.592	  6.580e-002 	             	
        74.615	             	  4.448e-001 	
        74.656	  6.540e-002 	             	
        74.679	             	  4.448e-001 	
        74.720	  6.510e-002 	             	
        74.743	             	  4.448e-001 	
        74.784	  6.640e-002 	             	
        74.807	             	  4.448e-001 	
        74.871	             	  4.448e-001 	
        74.880	  6.730e-002 	             	
        74.935	             	  4.447e-001 	
        74.944	  6.890e-002 	             	
        74.999	             	  4.446e-001 	
        75.008	  6.960e-002 	             	
        75.063	             	  4.445e-001 	
        75.072	  6.790e-002 	             	
        75.127	             	  4.444e-001 	
        75.136	  6.370e-002 	             	
        75.200	  6.180e-002 	             	
        75.223	             	  4.444e-001 	
        75.264	  5.900e-002 	             	
        75.287	             	  4.443e-001 	
        75.328	  5.590e-002 	             	
        75.351	             	  4.444e-001 	
        75.392	  5.420e-002 	             	
        75.415	             	  4.445e-001 	
        75.456	  5.280e-002 	             	
        75.479	             	  4.445e-001 	
        75.520	  5.350e-002 	             	
        75.543	             	  4.445e-001 	
        75.584	  5.480e-002 	             	
        75.607	             	  4.445e-001 	
        75.671	             	  4.445e-001 	
        75.680	  5.850e-002 	             	
        75.735	             	  4.445e-001 	
        75.744	  6.120e-002 	             	
        75.799	             	  4.444e-001 	
        75.808	  6.450e-002 	             	
        75.862	             	  4.443e-001 	
        75.872	  6.430e-002 	             	
        75.926	             	  4.441e-001 	
        75.936	  6.290e-002 	             	
        76.000	  6.600e-002 	             	
        76.023	             	  4.441e-001 	
        76.064	  6.880e-002 	             	
        76.087	             	  4.441e-001 	
        76.128	  6.820e-002 	             	
        76.150	             	  4.441e-001 	
        76.192	  6.720e-002 	             	
        76.215	             	  4.441e-001 	
        76.256	  6.810e-002 	             	
        76.279	             	  4.442e-001 	
        76.320	  6.870e-002 	             	
        76.343	             	  4.443e-001 	
        76.384	  6.900e-002 	             	
        76.406	             	  4.443e-001 	
        76.470	             	  4.443e-001 	
        76.480	  6.960e-002 	             	
        76.535	             	  4.443e-001 	
        76.544	  6.980e-002 	             	
        76.598	             	  4.444e-001 	
        76.608	  7.010e-002 	             	
        76.662	             	  4.444e-001 	
        76.672	  7.070e-002 	             	
        76.726	             	  4.444e-001 	
        76.736	  7.070e-002 	             	
        76.800	  7.090e-002 	             	
        76.822	             	  4.444e-001 	
        76.864	  7.090e-002 	             	
        76.886	             	  4.443e-001 	
        76.928	  7.090e-002 	             	
        76.950	             	  4.443e-001 	
        76.992	  7.110e-002 	             	
        77.014	             	  4.442e-001 	
        77.056	  7.150e-002 	             	
        77.078	             	  4.441e-001 	
        77.120	  7.170e-002 	             	
        77.142	             	  4.440e-001 	
        77.184	  7.100e-002 	             	
        77.207	             	  4.441e-001 	
        77.270	             	  4.440e-001 	
        77.280	  7.180e-002 	             	
        77.334	             	  4.440e-001 	
        77.344	  7.190e-002 	             	
        77.398	             	  4.441e-001 	
        77.408	  7.200e-002 	             	
        77.462	             	  4.441e-001 	
        77.472	  7.260e-002 	             	
        77.526	             	  4.442e-001 	
        77.536	  7.020e-002 	             	
        77.600	  6.740e-002 	             	
        77.622	             	  4.443e-001 	
        77.664	  6.420e-002 	             	
        77.686	             	  4.443e-001 	
        77.728	  5.980e-002 	             	
        77.750	             	  4.443e-001 	
        77.792	  5.940e-002 	             	
        77.814	             	  4.443e-001 	
        77.856	  5.930e-002 	             	
        77.878	             	  4.443e-001 	
        77.920	  5.980e-002 	             	
        77.942	             	  4.443e-001 	
        77.984	  6.250e-002 	             	
        78.006	             	  4.444e-001 	
        78.070	             	  4.445e-001 	
        78.080	  6.430e-002 	             	
        78.134	             	  4.445e-001 	
        78.144	  6.430e-002 	             	
        78.198	             	  4.445e-001 	
        78.208	  6.460e-002 	             	
        78.262	             	  4.445e-001 	
        78.272	  6.520e-002 	             	
        78.326	             	  4.445e-001 	
        78.336	  6.470e-002 	             	
        78.400	  6.530e-002 	             	
        78.422	             	  4.445e-001 	
        78.464	  6.500e-002 	             	
        78.486	             	  4.445e-001 	
        78.528	  6.440e-002 	             	
        78.550	             	  4.445e-001 	
        78.592	  6.390e-002 	             	
        78.614	             	  4.446e-001 	
        78.656	  6.340e-002 	             	
        78.678	             	  4.446e-001 	
        78.720	  6.310e-002 	             	
        78.742	             	  4.445e-001 	
        78.784	  6.270e-002 	             	
        78.806	             	  4.445e-001 	
        78.870	             	  4.445e-001 	
        78.880	  6.270e-002 	             	
        78.934	             	  4.445e-001 	
        78.944	  6.230e-002 	             	
        78.998	             	  4.444e-001 	
        79.008	  6.220e-002 	             	
        79.062	             	  4.443e-001 	
        79.072	  6.250e-002 	             	
        79.126	             	  4.443e-001 	
        79.136	  6.200e-002 	             	
        79.200	  6.130e-002 	             	
        79.222	             	  4.443e-001 	
        79.264	  6.110e-002 	             	
        79.286	             	  4.442e-001 	
        79.328	  6.090e-002 	             	
        79.350	             	  4.443e-001 	
        79.392	  6.130e-002 	             	
        79.414	             	  4.443e-001 	
        79.456	  6.110e-002 	             	
        79.478	             	  4.444e-001 	
        79.520	  6.070e-002 	             	
        79.542	             	  4.444e-001 	
        79.584	  6.090e-002 	             	
        79.606	             	  4.444e-001 	
        79.670	             	  4.444e-001 	
        79.680	  6.150e-002 	             	
        79.734	             	  4.445e-001 	
        79.744	  6.110e-002 	             	
        79.798	             	  4.444e-001 	
        79.808	  6.100e-002 	             	
        79.862	             	  4.444e-001 	
        79.872	  6.160e-002 	             	
        79.926	             	  4.444e-001 	
        79.936	  6.130e-002 	             	
        80.000	  6.110e-002 	             	
        80.022	             	  4.444e-001 	
        80.064	  6.070e-002 	             	
        80.086	             	  4.444e-001 	
        80.128	  6.030e-002 	             	
        80.150	             	  4.445e-001 	
        80.192	  6.020e-002 	             	
        80.214	             	  4.446e-001 	
        80.256	  6.000e-002 	             	
        80.278	             	  4.447e-001 	
        80.320	  6.000e-002 	             	
        80.342	             	  4.447e-001 	
        80.384	  5.950e-002 	             	
        80.406	             	  4.448e-001 	
        80.470	             	  4.448e-001 	
        80.480	  5.930e-002 	             	
        80.534	             	  4.448e-001 	
        80.544	  5.850e-002 	             	
        80.598	             	  4.448e-001 	
        80.608	  5.700e-002 	             	
        80.662	             	  4.448e-001 	
        80.672	  5.600e-002 	             	
        80.726	             	  4.448e-001 	
        80.736	  5.530e-002 	             	
        80.800	  5.510e-002 	             	
        80.822	             	  4.448e-001 	
        80.864	  5.550e-002 	             	
        80.886	             	  4.449e-001 	
        80.928	  5.620e-002 	             	
        80.950	             	  4.449e-001 	
        80.992	  5.720e-002 	             	
        81.014	             	  4.449e-001 	
        81.056	  5.760e-002 	             	
        81.078	             	  4.448e-001 	
        81.120	  5.850e-002 	             	
        81.142	             	  4.448e-001 	
        81.184	  5.970e-002 	             	
        81.206	             	  4.447e-001 	
        81.248	  6.090e-002 	             	
        81.270	             	  4.447e-001 	
        81.334	             	  4.446e-001 	
        81.344	  6.260e-002 	             	
        81.398	             	  4.447e-001 	
        81.408	  6.400e-002 	             	
        81.462	             	  4.447e-001 	
        81.472	  6.510e-002 	             	
        81.526	             	  4.447e-001 	
        81.536	  6.580e-002 	             	
        81.600	  6.690e-002 	             	
        81.622	             	  4.446e-001 	
        81.664	  6.660e-002 	             	
        81.686	             	  4.446e-001 	
        81.728	  6.750e-002 	             	
        81.750	             	  4.446e-001 	
        81.792	  6.780e-002 	             	
        81.814	             	  4.445e-001 	
        81.856	  6.820e-002 	             	
        81.878	             	  4.445e-001 	
        81.920	  6.680e-002 	             	
        81.942	             	  4.446e-001 	
        81.984	  6.700e-002 	             	
        82.006	             	  4.447e-001 	
        82.047	  6.790e-002 	             	
        82.070	             	  4.446e-001 	
        82.134	             	  4.447e-001 	
        82.144	  6.820e-002 	             	
        82.198	             	  4.446e-001 	
        82.208	  6.840e-002 	             	
        82.262	             	  4.446e-001 	
        82.272	  6.880e-002 	             	
        82.326	             	  4.445e-001 	
        82.335	  6.920e-002 	             	
        82.399	  6.960e-002 	             	
        82.422	             	  4.444e-001 	
        82.464	  6.970e-002 	             	
        82.486	             	  4.444e-001 	
        82.528	  7.040e-002 	             	
        82.550	             	  4.444e-001 	
        82.592	  6.980e-002 	             	
        82.614	             	  4.444e-001 	
        82.656	  6.860e-002 	             	
        82.678	             	  4.444e-001 	
        82.720	  6.730e-002 	             	
        82.742	             	  4.445e-001 	
        82.784	  6.450e-002 	             	
        82.806	             	  4.445e-001 	
        82.847	  6.130e-002 	             	
        82.870	             	  4.445e-001 	
        82.934	             	  4.445e-001 	
        82.944	  6.020e-002 	             	
        82.998	             	  4.445e-001 	
        83.007	  6.000e-002 	             	
        83.062	             	  4.444e-001 	
        83.071	  5.980e-002 	             	
        83.126	             	  4.444e-001 	
        83.135	  5.920e-002 	             	
        83.199	  5.910e-002 	             	
        83.222	             	  4.445e-001 	
        83.263	  5.860e-002 	             	
        83.286	             	  4.445e-001 	
        83.327	  5.820e-002 	             	
        83.350	             	  4.446e-001 	
        83.391	  5.810e-002 	             	
        83.414	             	  4.446e-001 	
        83.455	  5.820e-002 	             	
        83.478	             	  4.446e-001 	
        83.520	  5.820e-002 	             	
        83.542	             	  4.445e-001 	
        83.584	  5.820e-002 	             	
        83.606	             	  4.445e-001 	
        83.647	  5.810e-002 	             	
        83.670	             	  4.445e-001 	
        83.734	             	  4.445e-001 	
        83.743	  5.810e-002 	             	
        83.798	             	  4.446e-001 	
        83.807	  5.640e-002 	             	
        83.862	             	  4.447e-001 	
        83.871	  5.630e-002 	             	
        83.926	             	  4.446e-001 	
        83.935	  5.630e-002 	             	
        83.999	  5.630e-002 	             	
        84.022	             	  4.446e-001 	
        84.063	  5.590e-002 	             	
        84.086	             	  4.446e-001 	
        84.128	  5.580e-002 	             	
        84.151	             	  4.446e-001 	
        84.192	  5.800e-002 	             	
        84.215	             	  4.446e-001 	
        84.256	  5.830e-002 	             	
        84.279	             	  4.444e-001 	
        84.320	  5.790e-002 	             	
        84.343	             	  4.443e-001 	
        84.385	  5.780e-002 	             	
        84.407	             	  4.442e-001 	
        84.448	  5.730e-002 	             	
        84.471	             	  4.442e-001 	
        84.535	             	  4.443e-001 	
        84.544	  5.710e-002 	             	
        84.599	             	  4.443e-001 	
        84.608	  5.720e-002 	             	
        84.663	             	  4.444e-001 	
        84.672	  5.790e-002 	             	
        84.727	             	  4.444e-001 	
        84.736	  5.760e-002 	             	
        84.800	  5.800e-002 	             	
        84.823	             	  4.444e-001 	
        84.864	  5.790e-002 	             	
        84.887	             	  4.444e-001 	
        84.928	  5.780e-002 	             	
        84.951	             	  4.444e-001 	
        84.992	  5.770e-002 	             	
        85.015	             	  4.446e-001 	
        85.056	  5.750e-002 	             	
        85.079	             	  4.447e-001 	
        85.120	  5.740e-002 	             	
        85.143	             	  4.447e-001 	
        85.184	  5.770e-002 	             	
        85.207	             	  4.447e-001 	
        85.248	  5.840e-002 	             	
        85.271	             	  4.447e-001 	
        85.335	             	  4.446e-001 	
        85.344	  5.810e-002 	             	
        85.399	             	  4.444e-001 	
        85.408	  5.770e-002 	             	
        85.463	             	  4.444e-001 	
        85.472	  5.690e-002 	             	
        85.527	             	  4.443e-001 	
        85.536	  5.620e-002 	             	
        85.600	  5.590e-002 	             	
        85.623	             	  4.443e-001 	
        85.664	  5.540e-002 	             	
        85.687	             	  4.443e-001 	
        85.728	  5.530e-002 	             	
        85.751	             	  4.443e-001 	
        85.792	  5.570e-002 	             	
        85.815	             	  4.443e-001 	
        85.856	  5.580e-002 	             	
        85.879	             	  4.443e-001 	
        85.920	  5.590e-002 	             	
        85.943	             	  4.443e-001 	
        85.984	  5.590e-002 	             	
        86.007	             	  4.443e-001 	
        86.048	  5.660e-002 	             	
        86.071	             	  4.443e-001 	
        86.135	             	  4.443e-001 	
        86.144	  5.710e-002 	             	
        86.199	             	  4.444e-001 	
        86.208	  5.750e-002 	             	
        86.263	             	  4.444e-001 	
        86.272	  5.830e-002 	             	
        86.327	             	  4.443e-001 	
        86.336	  5.930e-002 	             	
        86.400	  6.000e-002 	             	
        86.423	             	  4.442e-001 	
        86.464	  6.100e-002 	             	
        86.487	             	  4.442e-001 	
        86.528	  6.160e-002 	             	
        86.551	             	  4.441e-001 	
        86.592	  6.230e-002 	             	
        86.615	             	  4.440e-001 	
        86.656	  6.180e-002 	             	
        86.679	             	  4.440e-001 	
        86.720	  6.070e-002 	             	
        86.743	             	  4.440e-001 	
        86.784	  6.090e-002 	             	
        86.807	             	  4.440e-001 	
        86.848	  6.100e-002 	             	
        86.871	             	  4.440e-001 	
        86.935	             	  4.439e-001 	
        86.944	  6.110e-002 	             	
        86.999	             	  4.439e-001 	
        87.008	  6.150e-002 	             	
        87.063	             	  4.439e-001 	
        87.072	  6.200e-002 	             	
        87.127	             	  4.439e-001 	
        87.136	  6.270e-002 	             	
        87.191	             	  4.439e-001 	
        87.200	  6.240e-002 	             	
        87.264	  6.260e-002 	             	
        87.287	             	  4.439e-001 	
        87.328	  6.290e-002 	             	
        87.351	             	  4.439e-001 	
        87.392	  6.290e-002 	             	
        87.415	             	  4.440e-001 	
        87.456	  6.280e-002 	             	
        87.479	             	  4.440e-001 	
        87.520	  6.250e-002 	             	
        87.543	             	  4.440e-001 	
        87.584	  6.280e-002 	             	
        87.607	             	  4.441e-001 	
        87.648	  6.240e-002 	             	
        87.671	             	  4.441e-001 	
        87.735	             	  4.442e-001 	
        87.744	  6.280e-002 	             	
        87.799	             	  4.441e-001 	
        87.808	  6.270e-002 	             	
        87.863	             	  4.441e-001 	
        87.872	  6.270e-002 	             	
        87.927	             	  4.440e-001 	
        87.936	  6.270e-002 	             	
        87.991	             	  4.440e-001 	
        88.000	  6.310e-002 	             	
        88.064	  6.230e-002 	             	
        88.087	             	  4.440e-001 	
        88.128	  6.210e-002 	             	
        88.151	             	  4.440e-001 	
        88.192	  6.080e-002 	             	
        88.215	             	  4.440e-001 	
        88.256	  6.060e-002 	             	
        88.279	             	  4.440e-001 	
        88.320	  6.000e-002 	             	
        88.343	             	  4.439e-001 	
        88.384	  6.000e-002 	             	
        88.407	             	  4.439e-001 	
        88.448	  5.990e-002 	             	
        88.471	             	  4.439e-001 	
        88.535	             	  4.439e-001 	
        88.544	  5.920e-002 	             	
        88.599	             	  4.440e-001 	
        88.608	  5.900e-002 	             	
        88.663	             	  4.441e-001 	
        88.672	  5.880e-002 	             	
        88.727	             	  4.441e-001 	
        88.736	  5.820e-002 	             	
        88.791	             	  4.441e-001 	
        88.800	  5.660e-002 	             	
        88.864	  5.660e-002 	             	
        88.887	             	  4.441e-001 	
        88.928	  5.630e-002 	             	
        88.951	             	  4.441e-001 	
        88.992	  5.640e-002 	             	
        89.015	             	  4.442e-001 	
        89.056	  5.620e-002 	             	
        89.079	             	  4.442e-001 	
        89.120	  5.620e-002 	             	
        89.143	             	  4.442e-001 	
        89.184	  5.600e-002 	             	
        89.207	             	  4.442e-001 	
        89.248	  5.610e-002 	             	
        89.271	             	  4.441e-001 	
        89.335	             	  4.440e-001 	
        89.344	  5.650e-002 	             	
        89.399	             	  4.440e-001 	
        89.408	  5.650e-002 	             	
        89.463	             	  4.440e-001 	
        89.472	  5.630e-002 	             	
        89.527	             	  4.440e-001 	
        89.536	  5.640e-002 	             	
        89.591	             	  4.440e-001 	
        89.600	  5.660e-002 	             	
        89.664	  5.660e-002 	             	
        89.687	             	  4.440e-001 	
        89.728	  5.660e-002 	             	
        89.751	             	  4.440e-001 	
        89.792	  5.650e-002 	             	
        89.815	             	  4.441e-001 	
        89.856	  5.700e-002 	             	
        89.879	             	  4.441e-001 	
        89.920	  5.710e-002 	             	
        89.943	             	  4.442e-001 	
        89.984	  5.700e-002 	             	
        90.007	             	  4.442e-001 	
        90.048	  5.690e-002 	             	
        90.071	             	  4.442e-001 	
        90.135	             	  4.442e-001 	
        90.144	  5.680e-002 	             	
        90.199	             	  4.441e-001 	
        90.208	  5.700e-002 	             	
        90.263	             	  4.441e-001 	
        90.272	  5.680e-002 	             	
        90.327	             	  4.440e-001 	
        90.336	  5.630e-002 	             	
        90.391	             	  4.440e-001 	
        90.400	  5.640e-002 	             	
        90.464	  5.650e-002 	             	
        90.487	             	  4.440e-001 	
        90.528	  5.630e-002 	             	
        90.551	             	  4.439e-001 	
        90.592	  5.640e-002 	             	
        90.615	             	  4.439e-001 	
        90.656	  5.640e-002 	             	
        90.679	             	  4.440e-001 	
        90.720	  5.650e-002 	             	
        90.743	             	  4.440e-001 	
        90.784	  5.640e-002 	             	
        90.807	             	  4.441e-001 	
        90.848	  5.660e-002 	             	
        90.871	             	  4.442e-001 	
        90.935	             	  4.442e-001 	
        90.944	  5.640e-002 	             	
        90.999	             	  4.442e-001 	
        91.008	  5.660e-002 	             	
        91.063	             	  4.442e-001 	
        91.072	  5.720e-002 	             	
        91.127	             	  4.441e-001 	
        91.136	  5.710e-002 	             	
        91.191	             	  4.441e-001 	
        91.200	  5.690e-002 	             	
        91.264	  5.730e-002 	             	
        91.287	             	  4.441e-001 	
        91.328	  5.760e-002 	             	
        91.351	             	  4.442e-001 	
        91.392	  5.810e-002 	             	
        91.415	             	  4.442e-001 	
        91.456	  5.830e-002 	             	
        91.479	             	  4.442e-001 	
        91.520	  5.860e-002 	             	
        91.543	             	  4.443e-001 	
        91.584	  5.880e-002 	             	
        91.607	             	  4.443e-001 	
        91.648	  5.930e-002 	             	
        91.671	             	  4.443e-001 	
        91.735	             	  4.443e-001 	
        91.744	  5.930e-002 	             	
        91.799	             	  4.443e-001 	
        91.808	  5.950e-002 	             	
        91.863	             	  4.443e-001 	
        91.872	  5.970e-002 	             	
        91.927	             	  4.443e-001 	
        91.936	  5.980e-002 	             	
        91.991	             	  4.443e-001 	
        92.000	  5.960e-002 	             	
        92.064	  5.980e-002 	             	
        92.087	             	  4.442e-001 	
        92.128	  5.950e-002 	             	
        92.151	             	  4.442e-001 	
        92.192	  5.980e-002 	             	
        92.215	             	  4.442e-001 	
        92.256	  5.960e-002 	             	
        92.279	             	  4.443e-001 	
        92.320	  5.970e-002 	             	
        92.343	             	  4.443e-001 	
        92.384	  5.980e-002 	             	
        92.407	             	  4.444e-001 	
        92.448	  6.020e-002 	             	
        92.471	             	  4.444e-001 	
        92.535	             	  4.443e-001 	
        92.544	  6.030e-002 	             	
        92.599	             	  4.442e-001 	
        92.608	  6.010e-002 	             	
        92.663	             	  4.441e-001 	
        92.672	  6.020e-002 	             	
        92.727	             	  4.441e-001 	
        92.736	  6.020e-002 	             	
        92.791	             	  4.442e-001 	
        92.800	  6.030e-002 	             	
        92.864	  6.030e-002 	             	
        92.887	             	  4.443e-001 	
        92.928	  6.050e-002 	             	
        92.951	             	  4.443e-001 	
        92.992	  6.040e-002 	             	
        93.015	             	  4.442e-001 	
        93.056	  6.020e-002 	             	
        93.079	             	  4.441e-001 	
        93.120	  6.020e-002 	             	
        93.143	             	  4.441e-001 	
        93.184	  6.060e-002 	             	
        93.207	             	  4.440e-001 	
        93.248	  6.060e-002 	             	
        93.271	             	  4.440e-001 	
        93.335	             	  4.440e-001 	
        93.344	  6.070e-002 	             	
        93.399	             	  4.440e-001 	
        93.408	  6.030e-002 	             	
        93.463	             	  4.441e-001 	
        93.472	  6.000e-002 	             	
        93.527	             	  4.442e-001 	
        93.536	  5.980e-002 	             	
        93.591	             	  4.442e-001 	
        93.600	  5.890e-002 	             	
        93.664	  5.890e-002 	             	
        93.687	             	  4.442e-001 	
        93.728	  5.840e-002 	             	
        93.750	             	  4.442e-001 	
        93.792	  5.810e-002 	             	
        93.815	             	  4.442e-001 	
        93.856	  5.770e-002 	             	
        93.878	             	  4.442e-001 	
        93.920	  5.780e-002 	             	
        93.942	             	  4.441e-001 	
        93.984	  5.720e-002 	             	
        94.007	             	  4.441e-001 	
        94.048	  5.670e-002 	             	
        94.070	             	  4.441e-001 	
        94.135	             	  4.441e-001 	
        94.144	  5.670e-002 	             	
        94.198	             	  4.441e-001 	
        94.208	  5.650e-002 	             	
        94.263	             	  4.441e-001 	
        94.272	  5.640e-002 	             	
        94.326	             	  4.441e-001 	
        94.336	  5.650e-002 	             	
        94.391	             	  4.440e-001 	
        94.400	  5.630e-002 	             	
        94.464	  5.620e-002 	             	
        94.486	             	  4.440e-001 	
        94.528	  5.580e-002 	             	
        94.551	             	  4.440e-001 	
        94.592	  5.580e-002 	             	
        94.614	             	  4.440e-001 	
        94.656	  5.580e-002 	             	
        94.679	             	  4.440e-001 	
        94.720	  5.610e-002 	             	
        94.742	             	  4.440e-001 	
        94.784	  5.570e-002 	             	
        94.806	             	  4.440e-001 	
        94.848	  5.560e-002 	             	
        94.870	             	  4.440e-001 	
        94.912	  5.550e-002 	             	
        94.934	             	  4.440e-001 	
        94.998	             	  4.440e-001 	
        95.008	  5.540e-002 	             	
        95.062	             	  4.440e-001 	
        95.072	  5.550e-002 	             	
        95.126	             	  4.440e-001 	
        95.136	  5.570e-002 	             	
        95.190	             	  4.439e-001 	
        95.200	  5.560e-002 	             	
        95.264	  5.570e-002 	             	
        95.286	             	  4.438e-001 	
        95.328	  5.530e-002 	             	
        95.350	             	  4.438e-001 	
        95.392	  5.560e-002 	             	
        95.415	             	  4.438e-001 	
        95.456	  5.540e-002 	             	
        95.478	             	  4.439e-001 	
        95.520	  5.530e-002 	             	
        95.542	             	  4.440e-001 	
        95.584	  5.540e-002 	             	
        95.606	             	  4.440e-001 	
        95.648	  5.550e-002 	             	
        95.670	             	  4.440e-001 	
        95.712	  5.570e-002 	             	
        95.734	             	  4.440e-001 	
        95.798	             	  4.438e-001 	
        95.808	  5.580e-002 	             	
        95.862	             	  4.438e-001 	
        95.872	  5.600e-002 	             	
        95.926	             	  4.438e-001 	
        95.936	  5.580e-002 	             	
        95.990	             	  4.439e-001 	
        96.000	  5.600e-002 	             	
        96.064	  5.580e-002 	             	
        96.086	             	  4.439e-001 	
        96.128	  5.650e-002 	             	
        96.150	             	  4.438e-001 	
        96.192	  5.640e-002 	             	
        96.214	             	  4.438e-001 	
        96.256	  5.680e-002 	             	
        96.278	             	  4.437e-001 	
        96.320	  5.640e-002 	             	
        96.342	             	  4.436e-001 	
        96.384	  5.700e-002 	             	
        96.406	             	  4.436e-001 	
        96.448	  5.700e-002 	             	
        96.470	             	  4.436e-001 	
        96.512	  5.740e-002 	             	
        96.534	             	  4.436e-001 	
        96.598	             	  4.436e-001 	
        96.608	  5.770e-002 	             	
        96.662	             	  4.435e-001 	
        96.672	  5.770e-002 	             	
        96.726	             	  4.435e-001 	
        96.736	  5.790e-002 	             	
        96.790	             	  4.435e-001 	
        96.800	  5.810e-002 	             	
        96.864	  5.760e-002 	             	
        96.886	             	  4.435e-001 	
        96.928	  5.730e-002 	             	
        96.950	             	  4.436e-001 	
        96.992	  5.760e-002 	             	
        97.014	             	  4.436e-001 	
        97.056	  5.780e-002 	             	
        97.078	             	  4.436e-001 	
        97.120	  5.790e-002 	             	
        97.142	             	  4.435e-001 	
        97.184	  5.830e-002 	             	
        97.206	             	  4.434e-001 	
        97.248	  5.810e-002 	             	
        97.270	             	  4.434e-001 	
        97.312	  5.790e-002 	             	
        97.334	             	  4.434e-001 	
        97.398	             	  4.434e-001 	
        97.408	  5.780e-002 	             	
        97.462	             	  4.433e-001 	
        97.472	  5.780e-002 	             	
        97.526	             	  4.433e-001 	
        97.536	  5.780e-002 	             	
        97.590	             	  4.433e-001 	
        97.600	  5.770e-002 	             	
        97.664	  5.810e-002 	             	
        97.686	             	  4.433e-001 	
        97.728	  5.810e-002 	             	
        97.750	             	  4.432e-001 	
        97.792	  5.830e-002 	             	
        97.814	             	  4.431e-001 	
        97.856	  5.850e-002 	             	
        97.878	             	  4.431e-001 	
        97.920	  5.840e-002 	             	
        97.942	             	  4.432e-001 	
        97.984	  5.860e-002 	             	
        98.006	             	  4.432e-001 	
        98.048	  5.870e-002 	             	
        98.070	             	  4.432e-001 	
        98.112	  5.880e-002 	             	
        98.134	             	  4.432e-001 	
        98.198	             	  4.433e-001 	
        98.208	  5.900e-002 	             	
        98.262	             	  4.433e-001 	
        98.272	  5.870e-002 	             	
        98.326	             	  4.434e-001 	
        98.336	  5.890e-002 	             	
        98.390	             	  4.433e-001 	
        98.400	  5.920e-002 	             	
        98.464	  5.900e-002 	             	
        98.486	             	  4.433e-001 	
        98.528	  5.880e-002 	             	
        98.550	             	  4.432e-001 	
        98.592	  5.840e-002 	             	
        98.614	             	  4.432e-001 	
        98.656	  5.830e-002 	             	
        98.678	             	  4.432e-001 	
        98.720	  5.820e-002 	             	
        98.742	             	  4.432e-001 	
        98.784	  5.820e-002 	             	
        98.806	             	  4.433e-001 	
        98.848	  5.810e-002 	             	
        98.870	             	  4.434e-001 	
        98.912	  5.780e-002 	             	
        98.934	             	  4.435e-001 	
        98.998	             	  4.435e-001 	
        99.008	  5.760e-002 	             	
        99.062	             	  4.435e-001 	
        99.072	  5.750e-002 	             	
        99.126	             	  4.435e-001 	
        99.136	  5.710e-002 	             	
        99.190	             	  4.435e-001 	
        99.200	  5.680e-002 	             	
        99.264	  5.680e-002 	             	
        99.286	             	  4.434e-001 	
        99.328	  5.650e-002 	             	
        99.350	             	  4.434e-001 	
        99.392	  5.640e-002 	             	
        99.414	             	  4.433e-001 	
        99.456	  5.620e-002 	             	
        99.478	             	  4.432e-001 	
        99.520	  5.620e-002 	             	
        99.542	             	  4.432e-001 	
        99.584	  5.590e-002 	             	
        99.606	             	  4.432e-001 	
        99.648	  5.540e-002 	             	
        99.670	             	  4.432e-001 	
        99.712	  5.570e-002 	             	
        99.734	             	  4.432e-001 	
        99.798	             	  4.432e-001 	
        99.807	  5.530e-002 	             	
        99.862	             	  4.432e-001 	
        99.872	  5.540e-002 	             	
        99.926	             	  4.431e-001 	
        99.936	  5.550e-002 	             	
        99.990	             	  4.431e-001 	
       100.000	  5.540e-002 	             	
       100.054	             	  4.431e-001 	
       100.064	  5.520e-002 	             	
       100.127	  5.510e-002 	             	
       100.150	             	  4.430e-001 	
       100.191	  5.530e-002 	             	
       100.214	             	  4.431e-001 	
       100.256	  5.530e-002 	             	
       100.278	             	  4.431e-001 	
       100.319	  5.530e-002 	             	
       100.342	             	  4.431e-001 	
       100.384	  5.490e-002 	             	
       100.406	             	  4.432e-001 	
       100.447	  5.480e-002 	             	
       100.470	             	  4.432e-001 	
       100.512	  5.370e-002 	             	
       100.534	             	  4.432e-001 	
       100.598	             	  4.433e-001 	
       100.607	  5.270e-002 	             	
       100.662	             	  4.433e-001 	
       100.672	  5.340e-002 	             	
       100.726	             	  4.433e-001 	
       100.735	  5.370e-002 	             	
       100.790	             	  4.433e-001 	
       100.799	  5.410e-002 	             	
       100.854	             	  4.433e-001 	
       100.863	  5.430e-002 	             	
       100.927	  5.470e-002 	             	
       100.950	             	  4.433e-001 	
       100.991	  5.490e-002 	             	
       101.014	             	  4.433e-001 	
       101.055	  5.520e-002 	             	
       101.078	             	  4.433e-001 	
       101.119	  5.520e-002 	             	
       101.142	             	  4.432e-001 	
       101.183	  5.540e-002 	             	
       101.206	             	  4.433e-001 	
       101.247	  5.530e-002 	             	
       101.270	             	  4.434e-001 	
       101.311	  5.540e-002 	             	
       101.334	             	  4.435e-001 	
       101.398	             	  4.435e-001 	
       101.407	  5.550e-002 	             	
       101.462	             	  4.436e-001 	
       101.471	  5.580e-002 	             	
       101.526	             	  4.436e-001 	
       101.536	  5.590e-002 	             	
       101.591	             	  4.435e-001 	
       101.600	  5.570e-002 	             	
       101.655	             	  4.435e-001 	
       101.664	  5.610e-002 	             	
       101.728	  5.600e-002 	             	
       101.751	             	  4.436e-001 	
       101.792	  5.570e-002 	             	
       101.815	             	  4.435e-001 	
       101.856	  5.550e-002 	             	
       101.879	             	  4.435e-001 	
       101.920	  5.580e-002 	             	
       101.943	             	  4.434e-001 	
       101.984	  5.580e-002 	             	
       102.007	             	  4.434e-001 	
       102.048	  5.600e-002 	             	
       102.071	             	  4.434e-001 	
       102.112	  5.630e-002 	             	
       102.135	             	  4.434e-001 	
       102.199	             	  4.435e-001 	
       102.208	  5.630e-002 	             	
       102.263	             	  4.435e-001 	
       102.272	  5.620e-002 	             	
       102.327	             	  4.435e-001 	
       102.336	  5.660e-002 	             	
       102.391	             	  4.436e-001 	
       102.400	  5.700e-002 	             	
       102.455	             	  4.436e-001 	
       102.464	  5.690e-002 	             	
       102.528	  5.710e-002 	             	
       102.551	             	  4.437e-001 	
       102.592	  5.680e-002 	             	
       102.615	             	  4.438e-001 	
       102.656	  5.690e-002 	             	
       102.679	             	  4.439e-001 	
       102.720	  5.680e-002 	             	
       102.743	             	  4.440e-001 	
       102.784	  5.690e-002 	             	
       102.807	             	  4.441e-001 	
       102.848	  5.700e-002 	             	
       102.871	             	  4.442e-001 	
       102.912	  5.730e-002 	             	
       102.935	             	  4.443e-001 	
       102.999	             	  4.443e-001 	
       103.008	  5.750e-002 	             	
       103.063	             	  4.443e-001 	
       103.072	  5.750e-002 	             	
       103.127	             	  4.443e-001 	
       103.136	  5.770e-002 	             	
       103.191	             	  4.443e-001 	
       103.200	  5.730e-002 	             	
       103.255	             	  4.443e-001 	
       103.264	  5.760e-002 	             	
       103.328	  5.760e-002 	             	
       103.351	             	  4.443e-001 	
       103.392	  5.750e-002 	             	
       103.415	             	  4.443e-001 	
       103.456	  5.780e-002 	             	
       103.479	             	  4.443e-001 	
       103.520	  5.770e-002 	             	
       103.543	             	  4.443e-001 	
       103.584	  5.800e-002 	             	
       103.607	             	  4.443e-001 	
       103.648	  5.800e-002 	             	
       103.671	             	  4.443e-001 	
       103.712	  5.820e-002 	             	
       103.735	             	  4.442e-001 	
       103.799	             	  4.442e-001 	
       103.808	  5.810e-002 	             	
       103.863	             	  4.442e-001 	
       103.872	  5.810e-002 	             	
       103.927	             	  4.443e-001 	
       103.936	  5.810e-002 	             	
       103.991	             	  4.443e-001 	
       104.000	  5.750e-002 	             	
       104.055	             	  4.444e-001 	
       104.064	  5.720e-002 	             	
       104.128	  5.740e-002 	             	
       104.151	             	  4.444e-001 	
       104.192	  5.740e-002 	             	
       104.215	             	  4.444e-001 	
       104.256	  5.710e-002 	             	
       104.279	             	  4.444e-001 	
       104.320	  5.720e-002 	             	
       104.343	             	  4.444e-001 	
       104.384	  5.690e-002 	             	
       104.407	             	  4.444e-001 	
       104.448	  5.700e-002 	             	
       104.471	             	  4.444e-001 	
       104.512	  5.600e-002 	             	
       104.535	             	  4.444e-001 	
       104.599	             	  4.444e-001 	
       104.608	  5.620e-002 	             	
       104.663	             	  4.445e-001 	
       104.672	  5.570e-002 	             	
       104.727	             	  4.445e-001 	
       104.736	  5.540e-002 	             	
       104.791	             	  4.444e-001 	
       104.800	  5.550e-002 	             	
       104.855	             	  4.444e-001 	
       104.864	  5.530e-002 	             	
       104.928	  5.560e-002 	             	
       104.951	             	  4.444e-001 	
       104.992	  5.540e-002 	             	
       105.015	             	  4.443e-001 	
       105.056	  5.550e-002 	             	
       105.079	             	  4.444e-001 	
       105.120	  5.510e-002 	             	
       105.143	             	  4.444e-001 	
       105.184	  5.480e-002 	             	
       105.207	             	  4.445e-001 	
       105.248	  5.330e-002 	             	
       105.271	             	  4.445e-001 	
       105.312	  5.300e-002 	             	
       105.335	             	  4.445e-001 	
       105.399	             	  4.445e-001 	
       105.408	  5.320e-002 	             	
       105.463	             	  4.444e-001 	
       105.472	  5.290e-002 	             	
       105.527	             	  4.444e-001 	
       105.536	  5.280e-002 	             	
       105.591	             	  4.445e-001 	
       105.600	  5.280e-002 	             	
       105.655	             	  4.444e-001 	
       105.664	  5.270e-002 	             	
       105.728	  5.320e-002 	             	
       105.751	             	  4.444e-001 	
       105.792	  5.360e-002 	             	
       105.815	             	  4.444e-001 	
       105.856	  5.350e-002 	             	
       105.879	             	  4.443e-001 	
       105.920	  5.370e-002 	             	
       105.943	             	  4.442e-001 	
       105.984	  5.350e-002 	             	
       106.007	             	  4.440e-001 	
       106.048	  5.390e-002 	             	
       106.071	             	  4.439e-001 	
       106.112	  5.400e-002 	             	
       106.135	             	  4.438e-001 	
       106.199	             	  4.437e-001 	
       106.208	  5.430e-002 	             	
       106.263	             	  4.436e-001 	
       106.272	  5.450e-002 	             	
       106.327	             	  4.437e-001 	
       106.336	  5.470e-002 	             	
       106.391	             	  4.437e-001 	
       106.400	  5.440e-002 	             	
       106.455	             	  4.438e-001 	
       106.464	  5.390e-002 	             	
       106.528	  5.400e-002 	             	
       106.551	             	  4.439e-001 	
       106.592	  5.430e-002 	             	
       106.615	             	  4.439e-001 	
       106.656	  5.460e-002 	             	
       106.679	             	  4.439e-001 	
       106.720	  5.500e-002 	             	
       106.743	             	  4.439e-001 	
       106.784	  5.470e-002 	             	
       106.807	             	  4.439e-001 	
       106.848	  5.510e-002 	             	
       106.871	             	  4.438e-001 	
       106.912	  5.500e-002 	             	
       106.935	             	  4.438e-001 	
       106.976	  5.560e-002 	             	
       106.999	             	  4.438e-001 	
       107.063	             	  4.438e-001 	
       107.072	  5.590e-002 	             	
       107.127	             	  4.438e-001 	
       107.136	  5.590e-002 	             	
       107.191	             	  4.439e-001 	
       107.200	  5.600e-002 	             	
       107.255	             	  4.439e-001 	
       107.264	  5.620e-002 	             	
       107.328	  5.630e-002 	             	
       107.351	             	  4.440e-001 	
       107.392	  5.660e-002 	             	
       107.415	             	  4.441e-001 	
       107.456	  5.680e-002 	             	
       107.479	             	  4.441e-001 	
       107.520	  5.690e-002 	             	
       107.543	             	  4.441e-001 	
       107.584	  5.680e-002 	             	
       107.607	             	  4.441e-001 	
       107.648	  5.630e-002 	             	
       107.671	             	  4.440e-001 	
       107.712	  5.640e-002 	             	
       107.735	             	  4.440e-001 	
       107.776	  5.620e-002 	             	
       107.799	             	  4.439e-001 	
       107.863	             	  4.438e-001 	
       107.872	  5.640e-002 	             	
       107.927	             	  4.438e-001 	
       107.936	  5.610e-002 	             	
       107.991	             	  4.438e-001 	
       108.000	  5.610e-002 	             	
       108.055	             	  4.438e-001 	
       108.064	  5.660e-002 	             	
       108.128	  5.670e-002 	             	
       108.151	             	  4.438e-001 	
       108.192	  5.710e-002 	             	
       108.215	             	  4.438e-001 	
       108.256	  5.700e-002 	             	
       108.279	             	  4.439e-001 	
       108.320	  5.690e-002 	             	
       108.343	             	  4.440e-001 	
       108.384	  5.700e-002 	             	
       108.407	             	  4.440e-001 	
       108.448	  5.730e-002 	             	
       108.471	             	  4.440e-001 	
       108.512	  5.750e-002 	             	
       108.535	             	  4.441e-001 	
       108.576	  5.770e-002 	             	
       108.599	             	  4.442e-001 	
       108.663	             	  4.443e-001 	
       108.672	  5.770e-002 	             	
       108.727	             	  4.443e-001 	
       108.736	  5.770e-002 	             	
       108.791	             	  4.444e-001 	
       108.800	  5.790e-002 	             	
       108.855	             	  4.444e-001 	
       108.864	  5.830e-002 	             	
       108.928	  5.860e-002 	             	
       108.951	             	  4.443e-001 	
       108.992	  5.870e-002 	             	
       109.015	             	  4.443e-001 	
       109.056	  5.860e-002 	             	
       109.079	             	  4.442e-001 	
       109.120	  5.860e-002 	             	
       109.143	             	  4.443e-001 	
       109.184	  5.820e-002 	             	
       109.207	             	  4.443e-001 	
       109.248	  5.750e-002 	             	
       109.271	             	  4.444e-001 	
       109.312	  5.760e-002 	             	
       109.335	             	  4.444e-001 	
       109.376	  5.770e-002 	             	
       109.399	             	  4.444e-001 	
       109.463	             	  4.443e-001 	
       109.472	  5.730e-002 	             	
       109.527	             	  4.443e-001 	
       109.536	  5.740e-002 	             	
       109.591	             	  4.442e-001 	
       109.600	  5.700e-002 	             	
       109.655	             	  4.442e-001 	
       109.664	  5.680e-002 	             	
       109.728	  5.650e-002 	             	
       109.751	             	  4.441e-001 	
       109.792	  5.650e-002 	             	
       109.815	             	  4.441e-001 	
       109.856	  5.610e-002 	             	
       109.879	             	  4.442e-001 	
       109.920	  5.550e-002 	             	
       109.943	             	  4.442e-001 	
       109.984	  5.530e-002 	             	
       110.007	             	  4.442e-001 	
       110.048	  5.540e-002 	             	
       110.071	             	  4.442e-001 	
       110.112	  5.530e-002 	             	
       110.135	             	  4.442e-001 	
       110.176	  5.520e-002 	             	
       110.199	             	  4.441e-001 	
       110.263	             	  4.440e-001 	
       110.272	  5.500e-002 	             	
       110.327	             	  4.440e-001 	
       110.336	  5.500e-002 	             	
       110.391	             	  4.440e-001 	
       110.400	  5.480e-002 	             	
       110.455	             	  4.440e-001 	
       110.464	  5.480e-002 	             	
       110.528	  5.480e-002 	             	
       110.551	             	  4.441e-001 	
       110.592	  5.470e-002 	             	
       110.615	             	  4.441e-001 	
       110.656	  5.480e-002 	             	
       110.679	             	  4.441e-001 	
       110.720	  5.430e-002 	             	
       110.743	             	  4.442e-001 	
       110.784	  5.430e-002 	             	
       110.806	             	  4.442e-001 	
       110.848	  5.430e-002 	             	
       110.871	             	  4.443e-001 	
       110.912	  5.430e-002 	             	
       110.934	             	  4.443e-001 	
       110.976	  5.410e-002 	             	
       110.999	             	  4.443e-001 	
       111.063	             	  4.442e-001 	
       111.072	  5.420e-002 	             	
       111.127	             	  4.442e-001 	
       111.136	  5.430e-002 	             	
       111.191	             	  4.441e-001 	
       111.200	  5.430e-002 	             	
       111.255	             	  4.441e-001 	
       111.264	  5.430e-002 	             	
       111.328	  5.420e-002 	             	
       111.350	             	  4.441e-001 	
       111.392	  5.420e-002 	             	
       111.414	             	  4.442e-001 	
       111.456	  5.440e-002 	             	
       111.478	             	  4.442e-001 	
       111.520	  5.440e-002 	             	
       111.542	             	  4.442e-001 	
       111.584	  5.420e-002 	             	
       111.606	             	  4.443e-001 	
       111.648	  5.450e-002 	             	
       111.670	             	  4.443e-001 	
       111.712	  5.430e-002 	             	
       111.735	             	  4.444e-001 	
       111.776	  5.410e-002 	             	
       111.799	             	  4.443e-001 	
       111.863	             	  4.444e-001 	
       111.872	  5.410e-002 	             	
       111.926	             	  4.444e-001 	
       111.936	  5.420e-002 	             	
       111.990	             	  4.444e-001 	
       112.000	  5.400e-002 	             	
       112.055	             	  4.444e-001 	
       112.064	  5.400e-002 	             	
       112.128	  5.430e-002 	             	
       112.150	             	  4.445e-001 	
       112.192	  5.430e-002 	             	
       112.214	             	  4.445e-001 	
       112.256	  5.450e-002 	             	
       112.278	             	  4.444e-001 	
       112.320	  5.440e-002 	             	
       112.343	             	  4.443e-001 	
       112.384	  5.430e-002 	             	
       112.406	             	  4.443e-001 	
       112.448	  5.440e-002 	             	
       112.470	             	  4.443e-001 	
       112.512	  5.410e-002 	             	
       112.535	             	  4.444e-001 	
       112.576	  5.450e-002 	             	
       112.598	             	  4.444e-001 	
       112.662	             	  4.445e-001 	
       112.672	  5.430e-002 	             	
       112.726	             	  4.445e-001 	
       112.736	  5.430e-002 	             	
       112.790	             	  4.445e-001 	
       112.800	  5.420e-002 	             	
       112.854	             	  4.445e-001 	
       112.864	  5.410e-002 	             	
       112.918	             	  4.444e-001 	
       112.928	  5.430e-002 	             	
       112.992	  5.430e-002 	             	
       113.014	             	  4.443e-001 	
       113.056	  5.430e-002 	             	
       113.078	             	  4.442e-001 	
       113.120	  5.420e-002 	             	
       113.142	             	  4.441e-001 	
       113.184	  5.440e-002 	             	
       113.206	             	  4.441e-001 	
       113.248	  5.430e-002 	             	
       113.270	             	  4.441e-001 	
       113.312	  5.430e-002 	             	
       113.334	             	  4.440e-001 	
       113.376	  5.430e-002 	             	
       113.398	             	  4.440e-001 	
       113.462	             	  4.440e-001 	
       113.472	  5.430e-002 	             	
       113.526	             	  4.441e-001 	
       113.536	  5.420e-002 	             	
       113.590	             	  4.440e-001 	
       113.600	  5.420e-002 	             	
       113.654	             	  4.440e-001 	
       113.664	  5.420e-002 	             	
       113.728	  5.440e-002 	             	
       113.750	             	  4.439e-001 	
       113.792	  5.440e-002 	             	
       113.814	             	  4.439e-001 	
       113.856	  5.440e-002 	             	
       113.878	             	  4.439e-001 	
       113.920	  5.430e-002 	             	
       113.942	             	  4.440e-001 	
       113.984	  5.420e-002 	             	
       114.006	             	  4.440e-001 	
       114.048	  5.440e-002 	             	
       114.070	             	  4.440e-001 	
       114.112	  5.410e-002 	             	
       114.134	             	  4.439e-001 	
       114.176	  5.430e-002 	             	
       114.198	             	  4.439e-001 	
       114.262	             	  4.439e-001 	
       114.272	  5.430e-002 	             	
       114.326	             	  4.439e-001 	
       114.336	  5.450e-002 	             	
       114.390	             	  4.439e-001 	
       114.400	  5.440e-002 	             	
       114.454	             	  4.440e-001 	
       114.464	  5.440e-002 	             	
       114.518	             	  4.440e-001 	
       114.528	  5.430e-002 	             	
       114.592	  5.420e-002 	             	
       114.614	             	  4.441e-001 	
       114.656	  5.430e-002 	             	
       114.678	             	  4.441e-001 	
       114.720	  5.410e-002 	             	
       114.742	             	  4.441e-001 	
       114.784	  5.430e-002 	             	
       114.806	             	  4.441e-001 	
       114.848	  5.420e-002 	             	
       114.870	             	  4.440e-001 	
       114.912	  5.440e-002 	             	
       114.934	             	  4.440e-001 	
       114.976	  5.440e-002 	             	
       114.998	             	  4.440e-001 	
       115.062	             	  4.440e-001 	
       115.072	  5.430e-002 	             	
       115.126	             	  4.440e-001 	
       115.136	  5.430e-002 	             	
       115.190	             	  4.440e-001 	
       115.200	  5.430e-002 	             	
       115.254	             	  4.441e-001 	
       115.264	  5.420e-002 	             	
       115.318	             	  4.441e-001 	
       115.328	  5.440e-002 	             	
       115.392	  5.400e-002 	             	
       115.414	             	  4.441e-001 	
       115.456	  5.430e-002 	             	
       115.478	             	  4.441e-001 	
       115.520	  5.420e-002 	             	
       115.542	             	  4.442e-001 	
       115.584	  5.440e-002 	             	
       115.606	             	  4.442e-001 	
       115.648	  5.430e-002 	             	
       115.670	             	  4.441e-001 	
       115.712	  5.430e-002 	             	
       115.734	             	  4.440e-001 	
       115.776	  5.430e-002 	             	
       115.798	             	  4.439e-001 	
       115.862	             	  4.440e-001 	
       115.872	  5.430e-002 	             	
       115.926	             	  4.440e-001 	
       115.936	  5.420e-002 	             	
       115.990	             	  4.441e-001 	
       116.000	  5.400e-002 	             	
       116.054	             	  4.442e-001 	
       116.064	  5.420e-002 	             	
       116.118	             	  4.442e-001 	
       116.128	  5.420e-002 	             	
       116.192	  5.430e-002 	             	
       116.214	             	  4.442e-001 	
       116.256	  5.440e-002 	             	
       116.278	             	  4.442e-001 	
       116.320	  5.420e-002 	             	
       116.342	             	  4.442e-001 	
       116.384	  5.400e-002 	             	
       116.406	             	  4.442e-001 	
       116.448	  5.390e-002 	             	
       116.470	             	  4.442e-001 	
       116.512	  5.450e-002 	             	
       116.534	             	  4.443e-001 	
       116.576	  5.430e-002 	             	
       116.598	             	  4.443e-001 	
       116.662	             	  4.443e-001 	
       116.672	  5.420e-002 	             	
       116.726	             	  4.442e-001 	
       116.736	  5.430e-002 	             	
       116.790	             	  4.442e-001 	
       116.799	  5.430e-002 	             	
       116.854	             	  4.442e-001 	
       116.864	  5.430e-002 	             	
       116.918	             	  4.441e-001 	
       116.928	  5.440e-002 	             	
       116.992	  5.430e-002 	             	
       117.014	             	  4.441e-001 	
       117.056	  5.430e-002 	             	
       117.078	             	  4.441e-001 	
       117.120	  5.410e-002 	             	
       117.142	             	  4.441e-001 	
       117.206	             	  4.441e-001 	
       117.270	             	  4.440e-001 	
       117.334	             	  4.440e-001 	
