;PC Software:StarLab Version 2.10 Build 25
;Logged:22/09/2022 at 16:04:33
;File Version:3
;Graph Type:Line
;Notes:                                                            

;Channel A:Nova II Photodiode PD300-3W-v1 (s/n:763106)  NN2.52 (s/n:767396)
;Channel B:Vega Thermopile 10A-V1.1 (s/n:693380)  VG2.44 (s/n:858327)

;Channel A:Details
;Name:PD300-3W-v1
;Graph Color:RGB(0,102,255)
;Units:W
;Settings:Measuring:Power
;Settings:Wavelength:1064
;Settings:Range:AUTO
;Settings:Filter:IN

;Channel B:Details
;Name:10A-V1.1
;Graph Color:RGB(154,0,0)
;Units:W
;Settings:Measuring:Power
;Settings:Laser:.8-6
;Settings:Range:AUTO
;--------------------


;First Pulse Arrived : 22/09/2022 at 16:04:33.857000
  Timestamp   	  Channel A  	  Channel B  	
         0.000	             	  4.638e-001 	
         0.007	  1.075e-002 	             	
         0.064	             	  4.637e-001 	
         0.071	  1.079e-002 	             	
         0.128	             	  4.636e-001 	
         0.135	  1.068e-002 	             	
         0.192	             	  4.636e-001 	
         0.199	  1.071e-002 	             	
         0.255	             	  4.636e-001 	
         0.263	  1.074e-002 	             	
         0.327	  1.081e-002 	             	
         0.351	             	  4.635e-001 	
         0.391	  1.071e-002 	             	
         0.416	             	  4.634e-001 	
         0.455	  1.062e-002 	             	
         0.479	             	  4.634e-001 	
         0.519	  1.067e-002 	             	
         0.544	             	  4.633e-001 	
         0.607	             	  4.632e-001 	
         0.615	  1.067e-002 	             	
         0.671	             	  4.632e-001 	
         0.679	  1.071e-002 	             	
         0.735	             	  4.631e-001 	
         0.743	  1.075e-002 	             	
         0.799	             	  4.631e-001 	
         0.807	  1.068e-002 	             	
         0.863	             	  4.631e-001 	
         0.871	  1.070e-002 	             	
         0.927	             	  4.631e-001 	
         0.935	  1.075e-002 	             	
         0.991	             	  4.631e-001 	
         0.999	  1.073e-002 	             	
         1.055	             	  4.631e-001 	
         1.063	  1.073e-002 	             	
         1.127	  1.078e-002 	             	
         1.151	             	  4.631e-001 	
         1.191	  1.087e-002 	             	
         1.215	             	  4.631e-001 	
         1.255	  1.081e-002 	             	
         1.279	             	  4.632e-001 	
         1.319	  1.076e-002 	             	
         1.343	             	  4.632e-001 	
         1.407	             	  4.632e-001 	
         1.415	  1.064e-002 	             	
         1.471	             	  4.632e-001 	
         1.479	  1.061e-002 	             	
         1.535	             	  4.632e-001 	
         1.543	  1.061e-002 	             	
         1.599	             	  4.631e-001 	
         1.607	  1.056e-002 	             	
         1.663	             	  4.630e-001 	
         1.671	  1.049e-002 	             	
         1.727	             	  4.630e-001 	
         1.735	  1.039e-002 	             	
         1.791	             	  4.630e-001 	
         1.799	  1.042e-002 	             	
         1.855	             	  4.629e-001 	
         1.863	  1.037e-002 	             	
         1.927	  1.038e-002 	             	
         1.951	             	  4.629e-001 	
         1.991	  1.041e-002 	             	
         2.015	             	  4.629e-001 	
         2.055	  1.034e-002 	             	
         2.079	             	  4.629e-001 	
         2.119	  1.034e-002 	             	
         2.143	             	  4.630e-001 	
         2.183	  1.034e-002 	             	
         2.207	             	  4.630e-001 	
         2.271	             	  4.630e-001 	
         2.279	  1.038e-002 	             	
         2.335	             	  4.631e-001 	
         2.343	  1.037e-002 	             	
         2.399	             	  4.631e-001 	
         2.407	  1.041e-002 	             	
         2.463	             	  4.631e-001 	
         2.471	  1.036e-002 	             	
         2.527	             	  4.631e-001 	
         2.535	  1.038e-002 	             	
         2.591	             	  4.630e-001 	
         2.599	  1.034e-002 	             	
         2.655	             	  4.631e-001 	
         2.663	  1.041e-002 	             	
         2.727	  1.047e-002 	             	
         2.751	             	  4.632e-001 	
         2.791	  1.039e-002 	             	
         2.815	             	  4.632e-001 	
         2.855	  1.040e-002 	             	
         2.879	             	  4.632e-001 	
         2.919	  1.043e-002 	             	
         2.944	             	  4.632e-001 	
         2.983	  1.047e-002 	             	
         3.008	             	  4.632e-001 	
         3.071	             	  4.632e-001 	
         3.079	  1.047e-002 	             	
         3.135	             	  4.631e-001 	
         3.143	  1.045e-002 	             	
         3.200	             	  4.632e-001 	
         3.208	  1.044e-002 	             	
         3.264	             	  4.632e-001 	
         3.272	  1.055e-002 	             	
         3.328	             	  4.633e-001 	
         3.336	  1.042e-002 	             	
         3.392	             	  4.633e-001 	
         3.400	  1.043e-002 	             	
         3.456	             	  4.633e-001 	
         3.464	  1.046e-002 	             	
         3.528	  1.054e-002 	             	
         3.552	             	  4.633e-001 	
         3.592	  1.048e-002 	             	
         3.616	             	  4.633e-001 	
         3.656	  1.043e-002 	             	
         3.680	             	  4.632e-001 	
         3.720	  1.047e-002 	             	
         3.744	             	  4.632e-001 	
         3.784	  1.043e-002 	             	
         3.808	             	  4.632e-001 	
         3.872	             	  4.633e-001 	
         3.880	  1.043e-002 	             	
         3.936	             	  4.633e-001 	
         3.944	  1.041e-002 	             	
         4.000	             	  4.634e-001 	
         4.008	  1.040e-002 	             	
         4.064	             	  4.634e-001 	
         4.072	  1.044e-002 	             	
         4.128	             	  4.634e-001 	
         4.136	  1.042e-002 	             	
         4.192	             	  4.634e-001 	
         4.200	  1.040e-002 	             	
         4.256	             	  4.634e-001 	
         4.264	  1.044e-002 	             	
         4.328	  1.044e-002 	             	
         4.352	             	  4.634e-001 	
         4.392	  1.035e-002 	             	
         4.416	             	  4.634e-001 	
         4.456	  1.024e-002 	             	
         4.480	             	  4.634e-001 	
         4.520	  1.047e-002 	             	
         4.544	             	  4.634e-001 	
         4.584	  1.052e-002 	             	
         4.608	             	  4.634e-001 	
         4.672	             	  4.634e-001 	
         4.680	  1.041e-002 	             	
         4.736	             	  4.634e-001 	
         4.744	  1.040e-002 	             	
         4.800	             	  4.634e-001 	
         4.808	  1.041e-002 	             	
         4.864	             	  4.634e-001 	
         4.872	  1.033e-002 	             	
         4.928	             	  4.634e-001 	
         4.936	  1.034e-002 	             	
         4.992	             	  4.633e-001 	
         5.000	  1.037e-002 	             	
         5.056	             	  4.633e-001 	
         5.064	  1.042e-002 	             	
         5.128	  1.037e-002 	             	
         5.152	             	  4.633e-001 	
         5.192	  1.048e-002 	             	
         5.216	             	  4.633e-001 	
         5.255	  1.039e-002 	             	
         5.280	             	  4.634e-001 	
         5.320	  1.027e-002 	             	
         5.344	             	  4.634e-001 	
         5.383	  1.040e-002 	             	
         5.408	             	  4.634e-001 	
         5.472	             	  4.634e-001 	
         5.479	  1.036e-002 	             	
         5.536	             	  4.634e-001 	
         5.544	  1.036e-002 	             	
         5.600	             	  4.634e-001 	
         5.608	  1.045e-002 	             	
         5.664	             	  4.634e-001 	
         5.671	  1.038e-002 	             	
         5.728	             	  4.634e-001 	
         5.735	  1.045e-002 	             	
         5.792	             	  4.634e-001 	
         5.800	  1.050e-002 	             	
         5.856	             	  4.635e-001 	
         5.863	  1.050e-002 	             	
         5.928	  1.053e-002 	             	
         5.952	             	  4.635e-001 	
         5.992	  1.051e-002 	             	
         6.016	             	  4.636e-001 	
         6.055	  1.045e-002 	             	
         6.080	             	  4.636e-001 	
         6.120	  1.035e-002 	             	
         6.144	             	  4.635e-001 	
         6.183	  1.037e-002 	             	
         6.208	             	  4.635e-001 	
         6.272	             	  4.634e-001 	
         6.279	  1.045e-002 	             	
         6.336	             	  4.633e-001 	
         6.344	  1.055e-002 	             	
         6.400	             	  4.633e-001 	
         6.407	  1.045e-002 	             	
         6.464	             	  4.633e-001 	
         6.472	  1.041e-002 	             	
         6.528	             	  4.633e-001 	
         6.535	  1.041e-002 	             	
         6.592	             	  4.632e-001 	
         6.600	  1.039e-002 	             	
         6.656	             	  4.632e-001 	
         6.663	  1.041e-002 	             	
         6.727	  1.031e-002 	             	
         6.752	             	  4.632e-001 	
         6.791	  1.032e-002 	             	
         6.816	             	  4.632e-001 	
         6.856	  1.044e-002 	             	
         6.880	             	  4.632e-001 	
         6.919	  1.036e-002 	             	
         6.944	             	  4.631e-001 	
         6.983	  1.040e-002 	             	
         7.008	             	  4.631e-001 	
         7.072	             	  4.632e-001 	
         7.079	  1.042e-002 	             	
         7.136	             	  4.632e-001 	
         7.143	  1.047e-002 	             	
         7.200	             	  4.632e-001 	
         7.207	  1.039e-002 	             	
         7.264	             	  4.632e-001 	
         7.271	  1.042e-002 	             	
         7.328	             	  4.632e-001 	
         7.335	  1.043e-002 	             	
         7.392	             	  4.632e-001 	
         7.399	  1.045e-002 	             	
         7.456	             	  4.631e-001 	
         7.463	  1.045e-002 	             	
         7.528	  1.047e-002 	             	
         7.552	             	  4.632e-001 	
         7.591	  1.038e-002 	             	
         7.616	             	  4.632e-001 	
         7.655	  1.041e-002 	             	
         7.680	             	  4.632e-001 	
         7.719	  1.039e-002 	             	
         7.744	             	  4.631e-001 	
         7.783	  1.037e-002 	             	
         7.808	             	  4.631e-001 	
         7.872	             	  4.630e-001 	
         7.879	  1.047e-002 	             	
         7.936	             	  4.630e-001 	
         7.943	  1.051e-002 	             	
         8.000	             	  4.631e-001 	
         8.007	  1.057e-002 	             	
         8.064	             	  4.632e-001 	
         8.071	  1.052e-002 	             	
         8.128	             	  4.633e-001 	
         8.135	  1.054e-002 	             	
         8.192	             	  4.633e-001 	
         8.200	  1.060e-002 	             	
         8.256	             	  4.633e-001 	
         8.263	  1.054e-002 	             	
         8.327	  1.061e-002 	             	
         8.352	             	  4.633e-001 	
         8.391	  1.057e-002 	             	
         8.416	             	  4.633e-001 	
         8.455	  1.056e-002 	             	
         8.480	             	  4.634e-001 	
         8.519	  1.053e-002 	             	
         8.544	             	  4.634e-001 	
         8.583	  1.056e-002 	             	
         8.608	             	  4.634e-001 	
         8.672	             	  4.633e-001 	
         8.679	  1.059e-002 	             	
         8.736	             	  4.633e-001 	
         8.743	  1.061e-002 	             	
         8.800	             	  4.632e-001 	
         8.807	  1.051e-002 	             	
         8.864	             	  4.633e-001 	
         8.871	  1.053e-002 	             	
         8.928	             	  4.633e-001 	
         8.935	  1.051e-002 	             	
         8.992	             	  4.632e-001 	
         8.999	  1.032e-002 	             	
         9.056	             	  4.631e-001 	
         9.063	  1.046e-002 	             	
         9.127	  1.059e-002 	             	
         9.152	             	  4.630e-001 	
         9.191	  1.061e-002 	             	
         9.216	             	  4.630e-001 	
         9.255	  1.056e-002 	             	
         9.280	             	  4.630e-001 	
         9.319	  1.056e-002 	             	
         9.344	             	  4.631e-001 	
         9.383	  1.050e-002 	             	
         9.408	             	  4.632e-001 	
         9.472	             	  4.634e-001 	
         9.479	  1.049e-002 	             	
         9.536	             	  4.635e-001 	
         9.543	  1.050e-002 	             	
         9.600	             	  4.636e-001 	
         9.607	  1.060e-002 	             	
         9.664	             	  4.637e-001 	
         9.671	  1.047e-002 	             	
         9.728	             	  4.637e-001 	
         9.735	  1.042e-002 	             	
         9.792	             	  4.638e-001 	
         9.799	  1.042e-002 	             	
         9.856	             	  4.637e-001 	
         9.863	  1.042e-002 	             	
         9.927	  1.046e-002 	             	
         9.952	             	  4.638e-001 	
         9.991	  1.046e-002 	             	
        10.016	             	  4.638e-001 	
        10.055	  1.040e-002 	             	
        10.080	             	  4.637e-001 	
        10.119	  1.039e-002 	             	
        10.144	             	  4.636e-001 	
        10.183	  1.041e-002 	             	
        10.208	             	  4.636e-001 	
        10.272	             	  4.636e-001 	
        10.279	  1.030e-002 	             	
        10.336	             	  4.636e-001 	
        10.343	  1.039e-002 	             	
        10.400	             	  4.636e-001 	
        10.407	  1.039e-002 	             	
        10.464	             	  4.636e-001 	
        10.471	  1.039e-002 	             	
        10.528	             	  4.635e-001 	
        10.535	  1.043e-002 	             	
        10.592	             	  4.635e-001 	
        10.599	  1.035e-002 	             	
        10.656	             	  4.635e-001 	
        10.663	  1.035e-002 	             	
        10.727	  1.036e-002 	             	
        10.752	             	  4.635e-001 	
        10.791	  1.043e-002 	             	
        10.816	             	  4.636e-001 	
        10.855	  1.032e-002 	             	
        10.880	             	  4.637e-001 	
        10.919	  1.037e-002 	             	
        10.944	             	  4.637e-001 	
        10.983	  1.033e-002 	             	
        11.008	             	  4.637e-001 	
        11.072	             	  4.636e-001 	
        11.079	  1.035e-002 	             	
        11.136	             	  4.636e-001 	
        11.143	  1.038e-002 	             	
        11.200	             	  4.635e-001 	
        11.207	  1.045e-002 	             	
        11.264	             	  4.635e-001 	
        11.271	  1.039e-002 	             	
        11.328	             	  4.634e-001 	
        11.335	  1.040e-002 	             	
        11.392	             	  4.634e-001 	
        11.399	  1.040e-002 	             	
        11.456	             	  4.634e-001 	
        11.463	  1.035e-002 	             	
        11.527	  1.036e-002 	             	
        11.552	             	  4.635e-001 	
        11.591	  1.036e-002 	             	
        11.616	             	  4.635e-001 	
        11.655	  1.037e-002 	             	
        11.680	             	  4.635e-001 	
        11.719	  1.027e-002 	             	
        11.744	             	  4.636e-001 	
        11.783	  1.027e-002 	             	
        11.808	             	  4.636e-001 	
        11.872	             	  4.635e-001 	
        11.879	  1.047e-002 	             	
        11.936	             	  4.634e-001 	
        11.943	  1.035e-002 	             	
        12.000	             	  4.634e-001 	
        12.007	  1.044e-002 	             	
        12.064	             	  4.634e-001 	
        12.071	  1.038e-002 	             	
        12.128	             	  4.634e-001 	
        12.135	  1.034e-002 	             	
        12.192	             	  4.635e-001 	
        12.199	  1.038e-002 	             	
        12.256	             	  4.634e-001 	
        12.263	  1.029e-002 	             	
        12.320	             	  4.634e-001 	
        12.327	  1.041e-002 	             	
        12.391	  1.038e-002 	             	
        12.416	             	  4.634e-001 	
        12.455	  1.037e-002 	             	
        12.480	             	  4.634e-001 	
        12.519	  1.033e-002 	             	
        12.544	             	  4.634e-001 	
        12.583	  1.047e-002 	             	
        12.608	             	  4.635e-001 	
        12.672	             	  4.635e-001 	
        12.679	  1.047e-002 	             	
        12.736	             	  4.635e-001 	
        12.743	  1.046e-002 	             	
        12.800	             	  4.635e-001 	
        12.807	  1.046e-002 	             	
        12.864	             	  4.635e-001 	
        12.871	  1.043e-002 	             	
        12.928	             	  4.634e-001 	
        12.935	  1.041e-002 	             	
        12.992	             	  4.633e-001 	
        12.999	  1.052e-002 	             	
        13.056	             	  4.631e-001 	
        13.063	  1.048e-002 	             	
        13.120	             	  4.631e-001 	
        13.127	  1.056e-002 	             	
        13.191	  1.060e-002 	             	
        13.216	             	  4.630e-001 	
        13.255	  1.061e-002 	             	
        13.280	             	  4.630e-001 	
        13.319	  1.058e-002 	             	
        13.344	             	  4.630e-001 	
        13.383	  1.062e-002 	             	
        13.408	             	  4.631e-001 	
        13.472	             	  4.632e-001 	
        13.479	  1.064e-002 	             	
        13.536	             	  4.633e-001 	
        13.543	  1.062e-002 	             	
        13.600	             	  4.633e-001 	
        13.607	  1.064e-002 	             	
        13.664	             	  4.632e-001 	
        13.671	  1.076e-002 	             	
        13.728	             	  4.632e-001 	
        13.735	  1.067e-002 	             	
        13.792	             	  4.632e-001 	
        13.799	  1.069e-002 	             	
        13.856	             	  4.633e-001 	
        13.863	  1.063e-002 	             	
        13.920	             	  4.633e-001 	
        13.927	  1.063e-002 	             	
        13.991	  1.070e-002 	             	
        14.016	             	  4.633e-001 	
        14.055	  1.065e-002 	             	
        14.080	             	  4.632e-001 	
        14.119	  1.074e-002 	             	
        14.144	             	  4.632e-001 	
        14.183	  1.059e-002 	             	
        14.208	             	  4.631e-001 	
        14.272	             	  4.631e-001 	
        14.279	  1.066e-002 	             	
        14.336	             	  4.631e-001 	
        14.343	  1.063e-002 	             	
        14.400	             	  4.631e-001 	
        14.407	  1.063e-002 	             	
        14.464	             	  4.632e-001 	
        14.471	  1.059e-002 	             	
        14.528	             	  4.632e-001 	
        14.535	  1.063e-002 	             	
        14.592	             	  4.633e-001 	
        14.599	  1.050e-002 	             	
        14.656	             	  4.633e-001 	
        14.663	  1.055e-002 	             	
        14.720	             	  4.633e-001 	
        14.727	  1.054e-002 	             	
        14.791	  1.056e-002 	             	
        14.816	             	  4.633e-001 	
        14.855	  1.052e-002 	             	
        14.880	             	  4.633e-001 	
        14.919	  1.058e-002 	             	
        14.944	             	  4.633e-001 	
        14.983	  1.056e-002 	             	
        15.008	             	  4.634e-001 	
        15.047	  1.054e-002 	             	
        15.072	             	  4.635e-001 	
        15.136	             	  4.635e-001 	
        15.143	  1.048e-002 	             	
        15.200	             	  4.635e-001 	
        15.207	  1.055e-002 	             	
        15.264	             	  4.634e-001 	
        15.271	  1.047e-002 	             	
        15.328	             	  4.634e-001 	
        15.335	  1.051e-002 	             	
        15.392	             	  4.634e-001 	
        15.399	  1.044e-002 	             	
        15.456	             	  4.634e-001 	
        15.463	  1.046e-002 	             	
        15.520	             	  4.635e-001 	
        15.527	  1.042e-002 	             	
        15.591	  1.046e-002 	             	
        15.616	             	  4.635e-001 	
        15.655	  1.039e-002 	             	
        15.680	             	  4.635e-001 	
        15.719	  1.044e-002 	             	
        15.744	             	  4.635e-001 	
        15.783	  1.038e-002 	             	
        15.808	             	  4.634e-001 	
        15.847	  1.048e-002 	             	
        15.872	             	  4.634e-001 	
        15.936	             	  4.634e-001 	
        15.943	  1.043e-002 	             	
        16.000	             	  4.634e-001 	
        16.007	  1.037e-002 	             	
        16.064	             	  4.634e-001 	
        16.071	  1.040e-002 	             	
        16.128	             	  4.634e-001 	
        16.135	  1.039e-002 	             	
        16.192	             	  4.634e-001 	
        16.199	  1.038e-002 	             	
        16.256	             	  4.635e-001 	
        16.263	  1.044e-002 	             	
        16.320	             	  4.635e-001 	
        16.327	  1.054e-002 	             	
        16.391	  1.047e-002 	             	
        16.416	             	  4.635e-001 	
        16.455	  1.039e-002 	             	
        16.480	             	  4.636e-001 	
        16.519	  1.040e-002 	             	
        16.544	             	  4.637e-001 	
        16.583	  1.048e-002 	             	
        16.608	             	  4.638e-001 	
        16.647	  1.043e-002 	             	
        16.672	             	  4.638e-001 	
        16.736	             	  4.638e-001 	
        16.743	  1.031e-002 	             	
        16.800	             	  4.638e-001 	
        16.807	  1.030e-002 	             	
        16.864	             	  4.637e-001 	
        16.871	  1.045e-002 	             	
        16.928	             	  4.637e-001 	
        16.935	  1.043e-002 	             	
        16.992	             	  4.637e-001 	
        16.999	  1.047e-002 	             	
        17.056	             	  4.636e-001 	
        17.063	  1.037e-002 	             	
        17.120	             	  4.636e-001 	
        17.127	  1.045e-002 	             	
        17.191	  1.055e-002 	             	
        17.216	             	  4.636e-001 	
        17.255	  1.050e-002 	             	
        17.280	             	  4.637e-001 	
        17.319	  1.048e-002 	             	
        17.344	             	  4.638e-001 	
        17.383	  1.043e-002 	             	
        17.408	             	  4.639e-001 	
        17.447	  1.048e-002 	             	
        17.472	             	  4.639e-001 	
        17.536	             	  4.639e-001 	
        17.543	  1.036e-002 	             	
        17.600	             	  4.639e-001 	
        17.607	  1.047e-002 	             	
        17.664	             	  4.638e-001 	
        17.671	  1.040e-002 	             	
        17.728	             	  4.637e-001 	
        17.735	  1.043e-002 	             	
        17.792	             	  4.636e-001 	
        17.799	  1.038e-002 	             	
        17.855	             	  4.636e-001 	
        17.863	  1.038e-002 	             	
        17.920	             	  4.635e-001 	
        17.927	  1.043e-002 	             	
        17.991	  1.051e-002 	             	
        18.016	             	  4.634e-001 	
        18.055	  1.053e-002 	             	
        18.080	             	  4.633e-001 	
        18.119	  1.056e-002 	             	
        18.144	             	  4.633e-001 	
        18.183	  1.058e-002 	             	
        18.208	             	  4.633e-001 	
        18.247	  1.053e-002 	             	
        18.272	             	  4.634e-001 	
        18.336	             	  4.634e-001 	
        18.343	  1.062e-002 	             	
        18.399	             	  4.634e-001 	
        18.407	  1.058e-002 	             	
        18.464	             	  4.634e-001 	
        18.471	  1.058e-002 	             	
        18.528	             	  4.634e-001 	
        18.535	  1.058e-002 	             	
        18.592	             	  4.634e-001 	
        18.599	  1.061e-002 	             	
        18.656	             	  4.635e-001 	
        18.663	  1.062e-002 	             	
        18.720	             	  4.635e-001 	
        18.727	  1.068e-002 	             	
        18.791	  1.065e-002 	             	
        18.816	             	  4.635e-001 	
        18.855	  1.069e-002 	             	
        18.880	             	  4.636e-001 	
        18.919	  1.067e-002 	             	
        18.943	             	  4.636e-001 	
        18.983	  1.069e-002 	             	
        19.008	             	  4.636e-001 	
        19.047	  1.074e-002 	             	
        19.071	             	  4.636e-001 	
        19.136	             	  4.636e-001 	
        19.143	  1.074e-002 	             	
        19.200	             	  4.636e-001 	
        19.207	  1.073e-002 	             	
        19.263	             	  4.635e-001 	
        19.271	  1.075e-002 	             	
        19.328	             	  4.635e-001 	
        19.335	  1.077e-002 	             	
        19.391	             	  4.635e-001 	
        19.399	  1.070e-002 	             	
        19.456	             	  4.635e-001 	
        19.463	  1.072e-002 	             	
        19.520	             	  4.635e-001 	
        19.527	  1.072e-002 	             	
        19.591	  1.077e-002 	             	
        19.615	             	  4.634e-001 	
        19.655	  1.077e-002 	             	
        19.679	             	  4.633e-001 	
        19.719	  1.076e-002 	             	
        19.744	             	  4.633e-001 	
        19.783	  1.067e-002 	             	
        19.807	             	  4.633e-001 	
        19.847	  1.065e-002 	             	
        19.871	             	  4.634e-001 	
        19.935	             	  4.634e-001 	
        19.943	  1.064e-002 	             	
        19.999	             	  4.633e-001 	
        20.007	  1.066e-002 	             	
        20.063	             	  4.634e-001 	
        20.071	  1.061e-002 	             	
        20.127	             	  4.634e-001 	
        20.135	  1.054e-002 	             	
        20.192	             	  4.635e-001 	
        20.199	  1.053e-002 	             	
        20.255	             	  4.635e-001 	
        20.263	  1.046e-002 	             	
        20.319	             	  4.634e-001 	
        20.327	  1.043e-002 	             	
        20.391	  1.046e-002 	             	
        20.415	             	  4.634e-001 	
        20.455	  1.047e-002 	             	
        20.479	             	  4.633e-001 	
        20.519	  1.052e-002 	             	
        20.543	             	  4.632e-001 	
        20.583	  1.050e-002 	             	
        20.607	             	  4.631e-001 	
        20.647	  1.046e-002 	             	
        20.672	             	  4.632e-001 	
        20.736	             	  4.632e-001 	
        20.744	  1.037e-002 	             	
        20.800	             	  4.632e-001 	
        20.808	  1.039e-002 	             	
        20.864	             	  4.632e-001 	
        20.872	  1.041e-002 	             	
        20.928	             	  4.632e-001 	
        20.936	  1.038e-002 	             	
        20.992	             	  4.632e-001 	
        21.000	  1.033e-002 	             	
        21.056	             	  4.632e-001 	
        21.064	  1.027e-002 	             	
        21.120	             	  4.632e-001 	
        21.128	  1.038e-002 	             	
        21.192	  1.037e-002 	             	
        21.216	             	  4.632e-001 	
        21.256	  1.035e-002 	             	
        21.280	             	  4.632e-001 	
        21.320	  1.038e-002 	             	
        21.344	             	  4.632e-001 	
        21.384	  1.037e-002 	             	
        21.408	             	  4.633e-001 	
        21.448	  1.032e-002 	             	
        21.472	             	  4.634e-001 	
        21.536	             	  4.635e-001 	
        21.544	  1.036e-002 	             	
        21.600	             	  4.635e-001 	
        21.608	  1.032e-002 	             	
        21.664	             	  4.635e-001 	
        21.672	  1.038e-002 	             	
        21.729	             	  4.636e-001 	
        21.736	  1.032e-002 	             	
        21.792	             	  4.635e-001 	
        21.800	  1.038e-002 	             	
        21.856	             	  4.635e-001 	
        21.864	  1.030e-002 	             	
        21.920	             	  4.634e-001 	
        21.928	  1.036e-002 	             	
        21.992	  1.035e-002 	             	
        22.016	             	  4.634e-001 	
        22.056	  1.030e-002 	             	
        22.080	             	  4.633e-001 	
        22.120	  1.035e-002 	             	
        22.144	             	  4.633e-001 	
        22.184	  1.029e-002 	             	
        22.208	             	  4.634e-001 	
        22.248	  1.027e-002 	             	
        22.272	             	  4.634e-001 	
        22.336	             	  4.635e-001 	
        22.344	  1.025e-002 	             	
        22.400	             	  4.635e-001 	
        22.408	  1.029e-002 	             	
        22.464	             	  4.636e-001 	
        22.472	  1.035e-002 	             	
        22.528	             	  4.635e-001 	
        22.535	  1.030e-002 	             	
        22.592	             	  4.634e-001 	
        22.600	  1.027e-002 	             	
        22.656	             	  4.634e-001 	
        22.664	  1.032e-002 	             	
        22.720	             	  4.633e-001 	
        22.728	  1.037e-002 	             	
        22.792	  1.037e-002 	             	
        22.816	             	  4.633e-001 	
        22.856	  1.041e-002 	             	
        22.880	             	  4.633e-001 	
        22.920	  1.034e-002 	             	
        22.944	             	  4.633e-001 	
        22.984	  1.046e-002 	             	
        23.008	             	  4.633e-001 	
        23.047	  1.035e-002 	             	
        23.072	             	  4.633e-001 	
        23.136	             	  4.633e-001 	
        23.143	  1.039e-002 	             	
        23.200	             	  4.632e-001 	
        23.208	  1.049e-002 	             	
        23.264	             	  4.632e-001 	
        23.272	  1.048e-002 	             	
        23.328	             	  4.632e-001 	
        23.336	  1.051e-002 	             	
        23.392	             	  4.631e-001 	
        23.400	  1.056e-002 	             	
        23.456	             	  4.631e-001 	
        23.464	  1.066e-002 	             	
        23.520	             	  4.631e-001 	
        23.528	  1.057e-002 	             	
        23.591	  1.062e-002 	             	
        23.616	             	  4.631e-001 	
        23.655	  1.061e-002 	             	
        23.680	             	  4.630e-001 	
        23.720	  1.070e-002 	             	
        23.744	             	  4.630e-001 	
        23.784	  1.066e-002 	             	
        23.808	             	  4.629e-001 	
        23.847	  1.076e-002 	             	
        23.872	             	  4.629e-001 	
        23.936	             	  4.629e-001 	
        23.943	  1.069e-002 	             	
        24.000	             	  4.629e-001 	
        24.007	  1.076e-002 	             	
        24.064	             	  4.629e-001 	
        24.071	  1.074e-002 	             	
        24.128	             	  4.630e-001 	
        24.136	  1.075e-002 	             	
        24.192	             	  4.630e-001 	
        24.199	  1.077e-002 	             	
        24.256	             	  4.630e-001 	
        24.263	  1.080e-002 	             	
        24.320	             	  4.630e-001 	
        24.327	  1.080e-002 	             	
        24.391	  1.078e-002 	             	
        24.416	             	  4.630e-001 	
        24.456	  1.082e-002 	             	
        24.480	             	  4.630e-001 	
        24.519	  1.075e-002 	             	
        24.544	             	  4.630e-001 	
        24.583	  1.078e-002 	             	
        24.608	             	  4.630e-001 	
        24.647	  1.073e-002 	             	
        24.672	             	  4.630e-001 	
        24.736	             	  4.631e-001 	
        24.743	  1.073e-002 	             	
        24.800	             	  4.631e-001 	
        24.807	  1.077e-002 	             	
        24.864	             	  4.630e-001 	
        24.871	  1.075e-002 	             	
        24.928	             	  4.630e-001 	
        24.935	  1.068e-002 	             	
        24.992	             	  4.629e-001 	
        24.999	  1.069e-002 	             	
        25.056	             	  4.629e-001 	
        25.063	  1.072e-002 	             	
        25.120	             	  4.629e-001 	
        25.127	  1.068e-002 	             	
        25.191	  1.063e-002 	             	
        25.216	             	  4.630e-001 	
        25.255	  1.058e-002 	             	
        25.280	             	  4.629e-001 	
        25.319	  1.069e-002 	             	
        25.344	             	  4.629e-001 	
        25.383	  1.069e-002 	             	
        25.408	             	  4.628e-001 	
        25.447	  1.066e-002 	             	
        25.472	             	  4.628e-001 	
        25.536	             	  4.629e-001 	
        25.543	  1.063e-002 	             	
        25.600	             	  4.629e-001 	
        25.607	  1.062e-002 	             	
        25.664	             	  4.630e-001 	
        25.671	  1.060e-002 	             	
        25.728	             	  4.630e-001 	
        25.735	  1.047e-002 	             	
        25.792	             	  4.630e-001 	
        25.799	  1.055e-002 	             	
        25.856	             	  4.630e-001 	
        25.863	  1.060e-002 	             	
        25.920	             	  4.629e-001 	
        25.927	  1.039e-002 	             	
        25.984	             	  4.629e-001 	
        25.991	  1.052e-002 	             	
        26.055	  1.052e-002 	             	
        26.080	             	  4.629e-001 	
        26.119	  1.045e-002 	             	
        26.144	             	  4.630e-001 	
        26.183	  1.043e-002 	             	
        26.208	             	  4.631e-001 	
        26.247	  1.047e-002 	             	
        26.272	             	  4.632e-001 	
        26.336	             	  4.633e-001 	
        26.343	  1.029e-002 	             	
        26.400	             	  4.633e-001 	
        26.407	  1.032e-002 	             	
        26.464	             	  4.632e-001 	
        26.471	  1.037e-002 	             	
        26.528	             	  4.631e-001 	
        26.535	  1.040e-002 	             	
        26.592	             	  4.630e-001 	
        26.599	  1.041e-002 	             	
        26.656	             	  4.629e-001 	
        26.663	  1.034e-002 	             	
        26.720	             	  4.629e-001 	
        26.727	  1.044e-002 	             	
        26.784	             	  4.630e-001 	
        26.791	  1.039e-002 	             	
        26.855	  1.042e-002 	             	
        26.880	             	  4.630e-001 	
        26.919	  1.049e-002 	             	
        26.944	             	  4.631e-001 	
        26.983	  1.045e-002 	             	
        27.008	             	  4.631e-001 	
        27.047	  1.031e-002 	             	
        27.072	             	  4.632e-001 	
        27.136	             	  4.632e-001 	
        27.143	  1.028e-002 	             	
        27.200	             	  4.631e-001 	
        27.207	  1.038e-002 	             	
        27.264	             	  4.631e-001 	
        27.271	  1.034e-002 	             	
        27.328	             	  4.630e-001 	
        27.335	  1.035e-002 	             	
        27.392	             	  4.629e-001 	
        27.399	  1.033e-002 	             	
        27.456	             	  4.628e-001 	
        27.463	  1.035e-002 	             	
        27.520	             	  4.628e-001 	
        27.527	  1.035e-002 	             	
        27.584	             	  4.628e-001 	
        27.591	  1.037e-002 	             	
        27.655	  1.041e-002 	             	
        27.680	             	  4.628e-001 	
        27.719	  1.035e-002 	             	
        27.744	             	  4.628e-001 	
        27.783	  1.032e-002 	             	
        27.808	             	  4.628e-001 	
        27.847	  1.041e-002 	             	
        27.872	             	  4.628e-001 	
        27.936	             	  4.628e-001 	
        27.943	  1.044e-002 	             	
        28.000	             	  4.628e-001 	
        28.007	  1.038e-002 	             	
        28.064	             	  4.627e-001 	
        28.071	  1.042e-002 	             	
        28.128	             	  4.628e-001 	
        28.135	  1.038e-002 	             	
        28.192	             	  4.628e-001 	
        28.199	  1.052e-002 	             	
        28.256	             	  4.629e-001 	
        28.263	  1.054e-002 	             	
        28.320	             	  4.630e-001 	
        28.327	  1.050e-002 	             	
        28.384	             	  4.631e-001 	
        28.391	  1.036e-002 	             	
        28.455	  1.048e-002 	             	
        28.480	             	  4.631e-001 	
        28.519	  1.048e-002 	             	
        28.544	             	  4.632e-001 	
        28.583	  1.058e-002 	             	
        28.608	             	  4.631e-001 	
        28.647	  1.059e-002 	             	
        28.672	             	  4.631e-001 	
        28.736	             	  4.630e-001 	
        28.743	  1.061e-002 	             	
        28.800	             	  4.629e-001 	
        28.807	  1.059e-002 	             	
        28.864	             	  4.629e-001 	
        28.871	  1.062e-002 	             	
        28.928	             	  4.629e-001 	
        28.935	  1.058e-002 	             	
        28.992	             	  4.629e-001 	
        28.999	  1.077e-002 	             	
        29.056	             	  4.631e-001 	
        29.063	  1.073e-002 	             	
        29.120	             	  4.631e-001 	
        29.127	  1.071e-002 	             	
        29.184	             	  4.632e-001 	
        29.191	  1.074e-002 	             	
        29.255	  1.067e-002 	             	
        29.280	             	  4.633e-001 	
        29.319	  1.076e-002 	             	
        29.344	             	  4.633e-001 	
        29.383	  1.067e-002 	             	
        29.408	             	  4.633e-001 	
        29.447	  1.067e-002 	             	
        29.472	             	  4.632e-001 	
        29.511	  1.069e-002 	             	
        29.536	             	  4.632e-001 	
        29.600	             	  4.631e-001 	
        29.607	  1.081e-002 	             	
        29.664	             	  4.630e-001 	
        29.671	  1.080e-002 	             	
        29.728	             	  4.630e-001 	
        29.735	  1.076e-002 	             	
        29.792	             	  4.630e-001 	
        29.799	  1.076e-002 	             	
        29.856	             	  4.630e-001 	
        29.863	  1.074e-002 	             	
        29.920	             	  4.630e-001 	
        29.927	  1.074e-002 	             	
        29.984	             	  4.630e-001 	
        29.991	  1.077e-002 	             	
        30.055	  1.080e-002 	             	
        30.080	             	  4.630e-001 	
        30.119	  1.080e-002 	             	
        30.144	             	  4.630e-001 	
        30.183	  1.084e-002 	             	
        30.208	             	  4.630e-001 	
        30.247	  1.082e-002 	             	
        30.272	             	  4.631e-001 	
        30.311	  1.078e-002 	             	
        30.336	             	  4.631e-001 	
        30.400	             	  4.632e-001 	
        30.407	  1.079e-002 	             	
        30.464	             	  4.632e-001 	
        30.471	  1.072e-002 	             	
        30.528	             	  4.633e-001 	
        30.535	  1.076e-002 	             	
        30.592	             	  4.633e-001 	
        30.599	  1.079e-002 	             	
        30.656	             	  4.633e-001 	
        30.663	  1.072e-002 	             	
        30.720	             	  4.633e-001 	
        30.727	  1.067e-002 	             	
        30.784	             	  4.633e-001 	
        30.791	  1.061e-002 	             	
        30.855	  1.065e-002 	             	
        30.880	             	  4.633e-001 	
        30.919	  1.058e-002 	             	
        30.944	             	  4.633e-001 	
        30.983	  1.064e-002 	             	
        31.008	             	  4.633e-001 	
        31.047	  1.064e-002 	             	
        31.072	             	  4.633e-001 	
        31.111	  1.058e-002 	             	
        31.136	             	  4.633e-001 	
        31.200	             	  4.633e-001 	
        31.207	  1.053e-002 	             	
        31.264	             	  4.632e-001 	
        31.271	  1.046e-002 	             	
        31.328	             	  4.632e-001 	
        31.335	  1.041e-002 	             	
        31.392	             	  4.632e-001 	
        31.399	  1.052e-002 	             	
        31.456	             	  4.632e-001 	
        31.463	  1.049e-002 	             	
        31.520	             	  4.632e-001 	
        31.527	  1.043e-002 	             	
        31.584	             	  4.632e-001 	
        31.591	  1.041e-002 	             	
        31.655	  1.039e-002 	             	
        31.680	             	  4.631e-001 	
        31.719	  1.030e-002 	             	
        31.744	             	  4.631e-001 	
        31.783	  1.034e-002 	             	
        31.808	             	  4.630e-001 	
        31.847	  1.030e-002 	             	
        31.872	             	  4.629e-001 	
        31.911	  1.037e-002 	             	
        31.936	             	  4.629e-001 	
        32.000	             	  4.629e-001 	
        32.007	  1.036e-002 	             	
        32.064	             	  4.630e-001 	
        32.071	  1.034e-002 	             	
        32.128	             	  4.630e-001 	
        32.135	  1.037e-002 	             	
        32.192	             	  4.631e-001 	
        32.199	  1.033e-002 	             	
        32.256	             	  4.631e-001 	
        32.263	  1.039e-002 	             	
        32.320	             	  4.631e-001 	
        32.327	  1.042e-002 	             	
        32.384	             	  4.630e-001 	
        32.391	  1.046e-002 	             	
        32.455	  1.047e-002 	             	
        32.480	             	  4.630e-001 	
        32.519	  1.041e-002 	             	
        32.544	             	  4.630e-001 	
        32.583	  1.038e-002 	             	
        32.608	             	  4.631e-001 	
        32.647	  1.031e-002 	             	
        32.672	             	  4.632e-001 	
        32.711	  1.029e-002 	             	
        32.736	             	  4.632e-001 	
        32.800	             	  4.632e-001 	
        32.807	  1.032e-002 	             	
        32.864	             	  4.630e-001 	
        32.871	  1.028e-002 	             	
        32.928	             	  4.629e-001 	
        32.935	  1.032e-002 	             	
        32.992	             	  4.628e-001 	
        32.999	  1.046e-002 	             	
        33.056	             	  4.629e-001 	
        33.063	  1.041e-002 	             	
        33.120	             	  4.630e-001 	
        33.127	  1.038e-002 	             	
        33.184	             	  4.630e-001 	
        33.191	  1.040e-002 	             	
        33.255	  1.050e-002 	             	
        33.280	             	  4.631e-001 	
        33.319	  1.040e-002 	             	
        33.344	             	  4.631e-001 	
        33.384	  1.045e-002 	             	
        33.408	             	  4.631e-001 	
        33.447	  1.048e-002 	             	
        33.472	             	  4.631e-001 	
        33.511	  1.053e-002 	             	
        33.536	             	  4.632e-001 	
        33.600	             	  4.633e-001 	
        33.607	  1.052e-002 	             	
        33.664	             	  4.633e-001 	
        33.671	  1.055e-002 	             	
        33.728	             	  4.633e-001 	
        33.735	  1.054e-002 	             	
        33.792	             	  4.633e-001 	
        33.799	  1.057e-002 	             	
        33.856	             	  4.633e-001 	
        33.863	  1.061e-002 	             	
        33.920	             	  4.633e-001 	
        33.927	  1.061e-002 	             	
        33.984	             	  4.633e-001 	
        33.991	  1.059e-002 	             	
        34.055	  1.058e-002 	             	
        34.080	             	  4.633e-001 	
        34.119	  1.065e-002 	             	
        34.144	             	  4.633e-001 	
        34.183	  1.061e-002 	             	
        34.208	             	  4.633e-001 	
        34.247	  1.073e-002 	             	
        34.272	             	  4.631e-001 	
        34.311	  1.067e-002 	             	
        34.336	             	  4.632e-001 	
        34.400	             	  4.632e-001 	
        34.407	  1.068e-002 	             	
        34.464	             	  4.632e-001 	
        34.471	  1.067e-002 	             	
        34.528	             	  4.631e-001 	
        34.535	  1.071e-002 	             	
        34.592	             	  4.631e-001 	
        34.599	  1.084e-002 	             	
        34.656	             	  4.630e-001 	
        34.663	  1.074e-002 	             	
        34.720	             	  4.630e-001 	
        34.727	  1.074e-002 	             	
        34.784	             	  4.630e-001 	
        34.791	  1.076e-002 	             	
        34.855	  1.090e-002 	             	
        34.880	             	  4.631e-001 	
        34.919	  1.073e-002 	             	
        34.944	             	  4.632e-001 	
        34.983	  1.079e-002 	             	
        35.008	             	  4.631e-001 	
        35.047	  1.069e-002 	             	
        35.072	             	  4.630e-001 	
        35.111	  1.075e-002 	             	
        35.136	             	  4.630e-001 	
        35.200	             	  4.630e-001 	
        35.207	  1.075e-002 	             	
        35.264	             	  4.629e-001 	
        35.271	  1.075e-002 	             	
        35.328	             	  4.629e-001 	
        35.335	  1.084e-002 	             	
        35.392	             	  4.629e-001 	
        35.399	  1.086e-002 	             	
        35.456	             	  4.630e-001 	
        35.463	  1.076e-002 	             	
        35.520	             	  4.629e-001 	
        35.527	  1.076e-002 	             	
        35.584	             	  4.629e-001 	
        35.591	  1.079e-002 	             	
        35.655	  1.078e-002 	             	
        35.680	             	  4.630e-001 	
        35.719	  1.076e-002 	             	
        35.744	             	  4.629e-001 	
        35.783	  1.074e-002 	             	
        35.808	             	  4.630e-001 	
        35.847	  1.073e-002 	             	
        35.872	             	  4.630e-001 	
        35.911	  1.084e-002 	             	
        35.936	             	  4.629e-001 	
        36.000	             	  4.629e-001 	
        36.007	  1.075e-002 	             	
        36.064	             	  4.630e-001 	
        36.071	  1.067e-002 	             	
        36.128	             	  4.629e-001 	
        36.135	  1.068e-002 	             	
        36.192	             	  4.629e-001 	
        36.199	  1.071e-002 	             	
        36.256	             	  4.628e-001 	
        36.263	  1.066e-002 	             	
        36.319	             	  4.628e-001 	
        36.327	  1.072e-002 	             	
        36.384	             	  4.628e-001 	
        36.391	  1.073e-002 	             	
        36.455	  1.057e-002 	             	
        36.480	             	  4.629e-001 	
        36.519	  1.065e-002 	             	
        36.543	             	  4.629e-001 	
        36.583	  1.057e-002 	             	
        36.608	             	  4.630e-001 	
        36.647	  1.045e-002 	             	
        36.672	             	  4.630e-001 	
        36.711	  1.031e-002 	             	
        36.735	             	  4.630e-001 	
        36.800	             	  4.629e-001 	
        36.807	  1.042e-002 	             	
        36.864	             	  4.628e-001 	
        36.871	  1.040e-002 	             	
        36.928	             	  4.628e-001 	
        36.935	  1.039e-002 	             	
        36.992	             	  4.628e-001 	
        36.999	  1.036e-002 	             	
        37.055	             	  4.627e-001 	
        37.063	  1.040e-002 	             	
        37.119	             	  4.627e-001 	
        37.127	  1.041e-002 	             	
        37.184	             	  4.627e-001 	
        37.191	  1.037e-002 	             	
        37.255	  1.047e-002 	             	
        37.279	             	  4.627e-001 	
        37.319	  1.040e-002 	             	
        37.343	             	  4.628e-001 	
        37.383	  1.042e-002 	             	
        37.407	             	  4.628e-001 	
        37.447	  1.039e-002 	             	
        37.471	             	  4.629e-001 	
        37.511	  1.043e-002 	             	
        37.535	             	  4.629e-001 	
        37.599	             	  4.629e-001 	
        37.607	  1.038e-002 	             	
        37.663	             	  4.629e-001 	
        37.671	  1.044e-002 	             	
        37.727	             	  4.629e-001 	
        37.735	  1.046e-002 	             	
        37.791	             	  4.629e-001 	
        37.799	  1.044e-002 	             	
        37.855	             	  4.629e-001 	
        37.863	  1.040e-002 	             	
        37.919	             	  4.629e-001 	
        37.927	  1.041e-002 	             	
        37.983	             	  4.630e-001 	
        37.991	  1.044e-002 	             	
        38.055	  1.042e-002 	             	
        38.079	             	  4.630e-001 	
        38.119	  1.046e-002 	             	
        38.144	             	  4.631e-001 	
        38.184	  1.039e-002 	             	
        38.208	             	  4.631e-001 	
        38.248	  1.033e-002 	             	
        38.272	             	  4.632e-001 	
        38.312	  1.043e-002 	             	
        38.336	             	  4.631e-001 	
        38.400	             	  4.630e-001 	
        38.408	  1.043e-002 	             	
        38.464	             	  4.631e-001 	
        38.472	  1.044e-002 	             	
        38.528	             	  4.630e-001 	
        38.536	  1.038e-002 	             	
        38.592	             	  4.630e-001 	
        38.600	  1.047e-002 	             	
        38.656	             	  4.630e-001 	
        38.664	  1.041e-002 	             	
        38.720	             	  4.630e-001 	
        38.728	  1.049e-002 	             	
        38.784	             	  4.629e-001 	
        38.792	  1.040e-002 	             	
        38.856	  1.048e-002 	             	
        38.880	             	  4.629e-001 	
        38.920	  1.058e-002 	             	
        38.944	             	  4.628e-001 	
        38.984	  1.061e-002 	             	
        39.008	             	  4.627e-001 	
        39.048	  1.053e-002 	             	
        39.072	             	  4.627e-001 	
        39.112	  1.064e-002 	             	
        39.136	             	  4.629e-001 	
        39.200	             	  4.629e-001 	
        39.208	  1.070e-002 	             	
        39.264	             	  4.630e-001 	
        39.272	  1.067e-002 	             	
        39.328	             	  4.631e-001 	
        39.336	  1.067e-002 	             	
        39.392	             	  4.631e-001 	
        39.400	  1.067e-002 	             	
        39.456	             	  4.631e-001 	
        39.464	  1.061e-002 	             	
        39.520	             	  4.631e-001 	
        39.528	  1.070e-002 	             	
        39.584	             	  4.631e-001 	
        39.592	  1.071e-002 	             	
        39.648	             	  4.630e-001 	
        39.656	  1.076e-002 	             	
        39.720	  1.068e-002 	             	
        39.744	             	  4.630e-001 	
        39.784	  1.074e-002 	             	
        39.808	             	  4.629e-001 	
        39.848	  1.064e-002 	             	
        39.872	             	  4.629e-001 	
        39.912	  1.075e-002 	             	
        39.936	             	  4.629e-001 	
        40.000	             	  4.629e-001 	
        40.008	  1.070e-002 	             	
        40.064	             	  4.629e-001 	
        40.072	  1.069e-002 	             	
        40.128	             	  4.628e-001 	
        40.136	  1.072e-002 	             	
        40.192	             	  4.628e-001 	
        40.200	  1.075e-002 	             	
        40.256	             	  4.629e-001 	
        40.263	  1.072e-002 	             	
        40.320	             	  4.631e-001 	
        40.328	  1.075e-002 	             	
        40.384	             	  4.631e-001 	
        40.392	  1.074e-002 	             	
        40.448	             	  4.632e-001 	
        40.456	  1.078e-002 	             	
        40.520	  1.075e-002 	             	
        40.544	             	  4.632e-001 	
        40.583	  1.081e-002 	             	
        40.608	             	  4.632e-001 	
        40.647	  1.072e-002 	             	
        40.672	             	  4.631e-001 	
        40.712	  1.071e-002 	             	
        40.736	             	  4.631e-001 	
        40.800	             	  4.631e-001 	
        40.807	  1.073e-002 	             	
        40.864	             	  4.632e-001 	
        40.872	  1.065e-002 	             	
        40.928	             	  4.632e-001 	
        40.936	  1.064e-002 	             	
        40.992	             	  4.631e-001 	
        40.999	  1.074e-002 	             	
        41.056	             	  4.630e-001 	
        41.064	  1.077e-002 	             	
        41.120	             	  4.629e-001 	
        41.127	  1.067e-002 	             	
        41.184	             	  4.629e-001 	
        41.192	  1.076e-002 	             	
        41.248	             	  4.630e-001 	
        41.256	  1.068e-002 	             	
        41.319	  1.074e-002 	             	
        41.344	             	  4.630e-001 	
        41.383	  1.070e-002 	             	
        41.408	             	  4.630e-001 	
        41.448	  1.062e-002 	             	
        41.472	             	  4.630e-001 	
        41.511	  1.061e-002 	             	
        41.536	             	  4.630e-001 	
        41.575	  1.067e-002 	             	
        41.600	             	  4.629e-001 	
        41.664	             	  4.629e-001 	
        41.671	  1.058e-002 	             	
        41.728	             	  4.629e-001 	
        41.735	  1.051e-002 	             	
        41.792	             	  4.630e-001 	
        41.799	  1.058e-002 	             	
        41.856	             	  4.629e-001 	
        41.863	  1.060e-002 	             	
        41.920	             	  4.630e-001 	
        41.927	  1.056e-002 	             	
        41.984	             	  4.630e-001 	
        41.991	  1.054e-002 	             	
        42.048	             	  4.631e-001 	
        42.055	  1.060e-002 	             	
        42.119	  1.046e-002 	             	
        42.144	             	  4.632e-001 	
        42.183	  1.049e-002 	             	
        42.208	             	  4.632e-001 	
        42.247	  1.040e-002 	             	
        42.272	             	  4.632e-001 	
        42.311	  1.041e-002 	             	
        42.336	             	  4.632e-001 	
        42.375	  1.030e-002 	             	
        42.400	             	  4.632e-001 	
        42.464	             	  4.633e-001 	
        42.471	  1.032e-002 	             	
        42.528	             	  4.633e-001 	
        42.535	  1.038e-002 	             	
        42.592	             	  4.633e-001 	
        42.599	  1.049e-002 	             	
        42.656	             	  4.633e-001 	
        42.663	  1.036e-002 	             	
        42.720	             	  4.633e-001 	
        42.727	  1.037e-002 	             	
        42.784	             	  4.633e-001 	
        42.792	  1.037e-002 	             	
        42.848	             	  4.633e-001 	
        42.855	  1.051e-002 	             	
        42.919	  1.046e-002 	             	
        42.944	             	  4.633e-001 	
        42.983	  1.044e-002 	             	
        43.008	             	  4.633e-001 	
        43.047	  1.043e-002 	             	
        43.072	             	  4.634e-001 	
        43.111	  1.046e-002 	             	
        43.136	             	  4.634e-001 	
        43.175	  1.043e-002 	             	
        43.200	             	  4.634e-001 	
        43.264	             	  4.634e-001 	
        43.271	  1.038e-002 	             	
        43.328	             	  4.634e-001 	
        43.335	  1.039e-002 	             	
        43.392	             	  4.633e-001 	
        43.399	  1.041e-002 	             	
        43.456	             	  4.632e-001 	
        43.463	  1.040e-002 	             	
        43.520	             	  4.631e-001 	
        43.527	  1.035e-002 	             	
        43.584	             	  4.630e-001 	
        43.591	  1.043e-002 	             	
        43.648	             	  4.629e-001 	
        43.655	  1.042e-002 	             	
        43.719	  1.043e-002 	             	
        43.744	             	  4.629e-001 	
        43.783	  1.024e-002 	             	
        43.808	             	  4.629e-001 	
        43.847	  1.042e-002 	             	
        43.872	             	  4.629e-001 	
        43.911	  1.045e-002 	             	
        43.936	             	  4.628e-001 	
        43.975	  1.040e-002 	             	
        44.000	             	  4.627e-001 	
        44.064	             	  4.627e-001 	
        44.071	  1.049e-002 	             	
        44.128	             	  4.626e-001 	
        44.135	  1.039e-002 	             	
        44.192	             	  4.626e-001 	
        44.199	  1.043e-002 	             	
        44.256	             	  4.625e-001 	
        44.263	  1.063e-002 	             	
        44.320	             	  4.626e-001 	
        44.327	  1.068e-002 	             	
        44.384	             	  4.626e-001 	
        44.391	  1.065e-002 	             	
        44.448	             	  4.628e-001 	
        44.455	  1.078e-002 	             	
        44.519	  1.072e-002 	             	
        44.544	             	  4.630e-001 	
        44.583	  1.062e-002 	             	
        44.608	             	  4.632e-001 	
        44.647	  1.064e-002 	             	
        44.672	             	  4.634e-001 	
        44.711	  1.069e-002 	             	
        44.736	             	  4.635e-001 	
        44.775	  1.065e-002 	             	
        44.800	             	  4.635e-001 	
        44.864	             	  4.635e-001 	
        44.871	  1.069e-002 	             	
        44.928	             	  4.635e-001 	
        44.935	  1.075e-002 	             	
        44.992	             	  4.634e-001 	
        44.999	  1.073e-002 	             	
        45.056	             	  4.634e-001 	
        45.063	  1.077e-002 	             	
        45.120	             	  4.635e-001 	
        45.127	  1.078e-002 	             	
        45.184	             	  4.635e-001 	
        45.191	  1.068e-002 	             	
        45.248	             	  4.636e-001 	
        45.255	  1.068e-002 	             	
        45.319	  1.075e-002 	             	
        45.344	             	  4.636e-001 	
        45.383	  1.077e-002 	             	
        45.408	             	  4.636e-001 	
        45.447	  1.067e-002 	             	
        45.472	             	  4.636e-001 	
        45.511	  1.072e-002 	             	
        45.536	             	  4.636e-001 	
        45.575	  1.069e-002 	             	
        45.600	             	  4.636e-001 	
        45.664	             	  4.636e-001 	
        45.671	  1.065e-002 	             	
        45.728	             	  4.636e-001 	
        45.735	  1.070e-002 	             	
        45.792	             	  4.635e-001 	
        45.799	  1.073e-002 	             	
        45.856	             	  4.635e-001 	
        45.863	  1.065e-002 	             	
        45.920	             	  4.635e-001 	
        45.927	  1.075e-002 	             	
        45.984	             	  4.634e-001 	
        45.991	  1.075e-002 	             	
        46.048	             	  4.634e-001 	
        46.055	  1.072e-002 	             	
        46.119	  1.073e-002 	             	
        46.144	             	  4.633e-001 	
        46.183	  1.072e-002 	             	
        46.208	             	  4.634e-001 	
        46.247	  1.078e-002 	             	
        46.272	             	  4.634e-001 	
        46.311	  1.073e-002 	             	
        46.336	             	  4.634e-001 	
        46.375	  1.080e-002 	             	
        46.400	             	  4.634e-001 	
        46.464	             	  4.634e-001 	
        46.471	  1.075e-002 	             	
        46.528	             	  4.634e-001 	
        46.535	  1.075e-002 	             	
        46.592	             	  4.634e-001 	
        46.599	  1.078e-002 	             	
        46.656	             	  4.634e-001 	
        46.663	  1.080e-002 	             	
        46.720	             	  4.634e-001 	
        46.727	  1.072e-002 	             	
        46.784	             	  4.634e-001 	
        46.791	  1.069e-002 	             	
        46.848	             	  4.635e-001 	
        46.855	  1.074e-002 	             	
        46.919	  1.070e-002 	             	
        46.944	             	  4.634e-001 	
        46.983	  1.063e-002 	             	
        47.008	             	  4.635e-001 	
        47.047	  1.056e-002 	             	
        47.072	             	  4.635e-001 	
        47.111	  1.052e-002 	             	
        47.136	             	  4.634e-001 	
        47.175	  1.051e-002 	             	
        47.200	             	  4.634e-001 	
        47.264	             	  4.634e-001 	
        47.271	  1.054e-002 	             	
        47.328	             	  4.634e-001 	
        47.335	  1.063e-002 	             	
        47.392	             	  4.635e-001 	
        47.399	  1.059e-002 	             	
        47.456	             	  4.635e-001 	
        47.463	  1.050e-002 	             	
        47.520	             	  4.635e-001 	
        47.527	  1.046e-002 	             	
        47.584	             	  4.635e-001 	
        47.591	  1.048e-002 	             	
        47.648	             	  4.635e-001 	
        47.655	  1.043e-002 	             	
        47.719	  1.038e-002 	             	
        47.744	             	  4.635e-001 	
        47.783	  1.041e-002 	             	
        47.808	             	  4.634e-001 	
        47.847	  1.041e-002 	             	
        47.872	             	  4.633e-001 	
        47.911	  1.038e-002 	             	
        47.936	             	  4.633e-001 	
        47.975	  1.046e-002 	             	
        48.000	             	  4.633e-001 	
        48.064	             	  4.633e-001 	
        48.071	  1.050e-002 	             	
        48.128	             	  4.633e-001 	
        48.135	  1.047e-002 	             	
        48.192	             	  4.633e-001 	
        48.199	  1.041e-002 	             	
        48.256	             	  4.633e-001 	
        48.263	  1.055e-002 	             	
        48.320	             	  4.632e-001 	
        48.327	  1.047e-002 	             	
        48.384	             	  4.632e-001 	
        48.391	  1.049e-002 	             	
        48.448	             	  4.631e-001 	
        48.455	  1.039e-002 	             	
        48.519	  1.054e-002 	             	
        48.544	             	  4.631e-001 	
        48.583	  1.051e-002 	             	
        48.608	             	  4.631e-001 	
        48.647	  1.048e-002 	             	
        48.672	             	  4.631e-001 	
        48.711	  1.047e-002 	             	
        48.736	             	  4.631e-001 	
        48.775	  1.051e-002 	             	
        48.800	             	  4.632e-001 	
        48.864	             	  4.632e-001 	
        48.871	  1.037e-002 	             	
        48.928	             	  4.633e-001 	
        48.935	  1.042e-002 	             	
        48.992	             	  4.633e-001 	
        48.999	  1.043e-002 	             	
        49.056	             	  4.633e-001 	
        49.063	  1.035e-002 	             	
        49.120	             	  4.633e-001 	
        49.127	  1.043e-002 	             	
        49.184	             	  4.633e-001 	
        49.191	  1.047e-002 	             	
        49.248	             	  4.633e-001 	
        49.255	  1.052e-002 	             	
        49.319	  1.054e-002 	             	
        49.344	             	  4.633e-001 	
        49.383	  1.032e-002 	             	
        49.408	             	  4.633e-001 	
        49.447	  1.043e-002 	             	
        49.472	             	  4.633e-001 	
        49.511	  1.052e-002 	             	
        49.536	             	  4.633e-001 	
        49.575	  1.058e-002 	             	
        49.600	             	  4.632e-001 	
        49.664	             	  4.631e-001 	
        49.671	  1.059e-002 	             	
        49.728	             	  4.630e-001 	
        49.735	  1.066e-002 	             	
        49.792	             	  4.630e-001 	
        49.799	  1.062e-002 	             	
        49.856	             	  4.630e-001 	
        49.863	  1.068e-002 	             	
        49.920	             	  4.630e-001 	
        49.927	  1.066e-002 	             	
        49.984	             	  4.631e-001 	
        49.991	  1.070e-002 	             	
        50.048	             	  4.631e-001 	
        50.055	  1.079e-002 	             	
        50.119	  1.071e-002 	             	
        50.144	             	  4.632e-001 	
        50.183	  1.072e-002 	             	
        50.208	             	  4.632e-001 	
        50.247	  1.072e-002 	             	
        50.272	             	  4.632e-001 	
        50.311	  1.078e-002 	             	
        50.336	             	  4.632e-001 	
        50.375	  1.075e-002 	             	
        50.400	             	  4.632e-001 	
        50.464	             	  4.632e-001 	
        50.471	  1.076e-002 	             	
        50.528	             	  4.631e-001 	
        50.535	  1.066e-002 	             	
        50.592	             	  4.631e-001 	
        50.599	  1.077e-002 	             	
        50.656	             	  4.630e-001 	
        50.663	  1.080e-002 	             	
        50.720	             	  4.629e-001 	
        50.727	  1.084e-002 	             	
        50.784	             	  4.629e-001 	
        50.791	  1.075e-002 	             	
        50.848	             	  4.629e-001 	
        50.855	  1.064e-002 	             	
        50.912	             	  4.629e-001 	
        50.919	  1.073e-002 	             	
        50.983	  1.082e-002 	             	
        51.008	             	  4.629e-001 	
        51.047	  1.080e-002 	             	
        51.072	             	  4.629e-001 	
        51.111	  1.079e-002 	             	
        51.136	             	  4.629e-001 	
        51.175	  1.076e-002 	             	
        51.200	             	  4.629e-001 	
        51.264	             	  4.629e-001 	
        51.271	  1.087e-002 	             	
        51.328	             	  4.629e-001 	
        51.335	  1.078e-002 	             	
        51.392	             	  4.630e-001 	
        51.399	  1.077e-002 	             	
        51.456	             	  4.629e-001 	
        51.463	  1.075e-002 	             	
        51.520	             	  4.629e-001 	
        51.527	  1.090e-002 	             	
        51.584	             	  4.629e-001 	
        51.591	  1.091e-002 	             	
        51.648	             	  4.629e-001 	
        51.655	  1.080e-002 	             	
        51.712	             	  4.630e-001 	
        51.719	  1.068e-002 	             	
        51.783	  1.073e-002 	             	
        51.808	             	  4.630e-001 	
        51.847	  1.075e-002 	             	
        51.872	             	  4.630e-001 	
        51.911	  1.079e-002 	             	
        51.936	             	  4.629e-001 	
        51.975	  1.081e-002 	             	
        52.000	             	  4.630e-001 	
        52.064	             	  4.630e-001 	
        52.071	  1.074e-002 	             	
        52.128	             	  4.630e-001 	
        52.135	  1.069e-002 	             	
        52.192	             	  4.630e-001 	
        52.199	  1.075e-002 	             	
        52.256	             	  4.631e-001 	
        52.263	  1.068e-002 	             	
        52.320	             	  4.631e-001 	
        52.327	  1.082e-002 	             	
        52.384	             	  4.631e-001 	
        52.391	  1.073e-002 	             	
        52.448	             	  4.631e-001 	
        52.455	  1.071e-002 	             	
        52.512	             	  4.632e-001 	
        52.519	  1.046e-002 	             	
        52.583	  1.059e-002 	             	
        52.608	             	  4.632e-001 	
        52.647	  1.063e-002 	             	
        52.672	             	  4.631e-001 	
        52.711	  1.061e-002 	             	
        52.736	             	  4.631e-001 	
        52.775	  1.053e-002 	             	
        52.800	             	  4.631e-001 	
        52.864	             	  4.630e-001 	
        52.871	  1.048e-002 	             	
        52.928	             	  4.630e-001 	
        52.935	  1.061e-002 	             	
        52.992	             	  4.629e-001 	
        52.999	  1.057e-002 	             	
        53.056	             	  4.629e-001 	
        53.063	  1.049e-002 	             	
        53.120	             	  4.629e-001 	
        53.127	  1.049e-002 	             	
        53.184	             	  4.630e-001 	
        53.191	  1.029e-002 	             	
        53.248	             	  4.630e-001 	
        53.255	  1.036e-002 	             	
        53.312	             	  4.631e-001 	
        53.319	  1.033e-002 	             	
        53.383	  1.047e-002 	             	
        53.408	             	  4.630e-001 	
        53.447	  1.044e-002 	             	
        53.472	             	  4.630e-001 	
        53.511	  1.046e-002 	             	
        53.536	             	  4.629e-001 	
        53.575	  1.042e-002 	             	
        53.600	             	  4.629e-001 	
        53.664	             	  4.629e-001 	
        53.671	  1.048e-002 	             	
        53.728	             	  4.629e-001 	
        53.735	  1.053e-002 	             	
        53.791	             	  4.630e-001 	
        53.799	  1.045e-002 	             	
        53.856	             	  4.631e-001 	
        53.863	  1.032e-002 	             	
        53.919	             	  4.631e-001 	
        53.927	  1.042e-002 	             	
        53.984	             	  4.631e-001 	
        53.991	  1.050e-002 	             	
        54.048	             	  4.630e-001 	
        54.055	  1.053e-002 	             	
        54.112	             	  4.630e-001 	
        54.119	  1.049e-002 	             	
        54.183	  1.047e-002 	             	
        54.207	             	  4.630e-001 	
        54.247	  1.044e-002 	             	
        54.272	             	  4.630e-001 	
        54.311	  1.045e-002 	             	
        54.335	             	  4.631e-001 	
        54.375	  1.045e-002 	             	
        54.399	             	  4.631e-001 	
        54.439	  1.042e-002 	             	
        54.463	             	  4.631e-001 	
        54.528	             	  4.630e-001 	
        54.535	  1.055e-002 	             	
        54.591	             	  4.630e-001 	
        54.599	  1.054e-002 	             	
        54.655	             	  4.630e-001 	
        54.663	  1.058e-002 	             	
        54.719	             	  4.630e-001 	
        54.727	  1.058e-002 	             	
        54.783	             	  4.630e-001 	
        54.791	  1.068e-002 	             	
        54.848	             	  4.631e-001 	
        54.855	  1.058e-002 	             	
        54.912	             	  4.631e-001 	
        54.919	  1.061e-002 	             	
        54.983	  1.067e-002 	             	
        55.007	             	  4.631e-001 	
        55.047	  1.064e-002 	             	
        55.071	             	  4.632e-001 	
        55.111	  1.069e-002 	             	
        55.136	             	  4.632e-001 	
        55.175	  1.070e-002 	             	
        55.199	             	  4.632e-001 	
        55.239	  1.063e-002 	             	
        55.263	             	  4.632e-001 	
        55.327	             	  4.631e-001 	
        55.335	  1.066e-002 	             	
        55.391	             	  4.630e-001 	
        55.399	  1.067e-002 	             	
        55.455	             	  4.630e-001 	
        55.463	  1.067e-002 	             	
        55.519	             	  4.631e-001 	
        55.527	  1.067e-002 	             	
        55.583	             	  4.631e-001 	
        55.591	  1.063e-002 	             	
        55.648	             	  4.631e-001 	
        55.656	  1.062e-002 	             	
        55.712	             	  4.631e-001 	
        55.720	  1.064e-002 	             	
        55.784	  1.058e-002 	             	
        55.808	             	  4.631e-001 	
        55.848	  1.068e-002 	             	
        55.872	             	  4.632e-001 	
        55.912	  1.059e-002 	             	
        55.936	             	  4.633e-001 	
        55.976	  1.065e-002 	             	
        56.000	             	  4.633e-001 	
        56.040	  1.068e-002 	             	
        56.065	             	  4.633e-001 	
        56.128	             	  4.633e-001 	
        56.136	  1.067e-002 	             	
        56.192	             	  4.633e-001 	
        56.200	  1.071e-002 	             	
        56.256	             	  4.634e-001 	
        56.264	  1.075e-002 	             	
        56.320	             	  4.634e-001 	
        56.328	  1.075e-002 	             	
        56.384	             	  4.635e-001 	
        56.392	  1.075e-002 	             	
        56.448	             	  4.637e-001 	
        56.456	  1.068e-002 	             	
        56.512	             	  4.638e-001 	
        56.520	  1.071e-002 	             	
        56.584	  1.069e-002 	             	
        56.608	             	  4.638e-001 	
        56.648	  1.066e-002 	             	
        56.672	             	  4.639e-001 	
        56.712	  1.062e-002 	             	
        56.736	             	  4.639e-001 	
        56.776	  1.072e-002 	             	
        56.800	             	  4.639e-001 	
        56.840	  1.066e-002 	             	
        56.864	             	  4.639e-001 	
        56.928	             	  4.639e-001 	
        56.936	  1.072e-002 	             	
        56.992	             	  4.639e-001 	
        57.000	  1.069e-002 	             	
        57.056	             	  4.639e-001 	
        57.064	  1.068e-002 	             	
        57.120	             	  4.639e-001 	
        57.128	  1.070e-002 	             	
        57.184	             	  4.640e-001 	
        57.192	  1.070e-002 	             	
        57.248	             	  4.640e-001 	
        57.256	  1.065e-002 	             	
        57.312	             	  4.641e-001 	
        57.320	  1.060e-002 	             	
        57.384	  1.070e-002 	             	
        57.408	             	  4.640e-001 	
        57.448	  1.067e-002 	             	
        57.472	             	  4.640e-001 	
        57.512	  1.062e-002 	             	
        57.536	             	  4.639e-001 	
        57.576	  1.069e-002 	             	
        57.600	             	  4.638e-001 	
        57.640	  1.065e-002 	             	
        57.664	             	  4.638e-001 	
        57.728	             	  4.639e-001 	
        57.736	  1.068e-002 	             	
        57.792	             	  4.639e-001 	
        57.799	  1.062e-002 	             	
        57.856	             	  4.639e-001 	
        57.864	  1.072e-002 	             	
        57.920	             	  4.639e-001 	
        57.928	  1.067e-002 	             	
        57.984	             	  4.639e-001 	
        57.992	  1.072e-002 	             	
        58.048	             	  4.639e-001 	
        58.056	  1.068e-002 	             	
        58.112	             	  4.640e-001 	
        58.120	  1.068e-002 	             	
        58.184	  1.071e-002 	             	
        58.208	             	  4.640e-001 	
        58.247	  1.069e-002 	             	
        58.272	             	  4.641e-001 	
        58.312	  1.071e-002 	             	
        58.336	             	  4.642e-001 	
        58.376	  1.075e-002 	             	
        58.400	             	  4.642e-001 	
        58.440	  1.076e-002 	             	
        58.464	             	  4.642e-001 	
        58.528	             	  4.641e-001 	
        58.535	  1.079e-002 	             	
        58.592	             	  4.641e-001 	
        58.599	  1.076e-002 	             	
        58.656	             	  4.640e-001 	
        58.664	  1.079e-002 	             	
        58.720	             	  4.640e-001 	
        58.728	  1.080e-002 	             	
        58.784	             	  4.639e-001 	
        58.791	  1.080e-002 	             	
        58.848	             	  4.639e-001 	
        58.855	  1.084e-002 	             	
        58.912	             	  4.639e-001 	
        58.919	  1.080e-002 	             	
        58.984	  1.072e-002 	             	
        59.008	             	  4.639e-001 	
        59.047	  1.083e-002 	             	
        59.072	             	  4.638e-001 	
        59.111	  1.082e-002 	             	
        59.136	             	  4.638e-001 	
        59.175	  1.076e-002 	             	
        59.200	             	  4.638e-001 	
        59.239	  1.082e-002 	             	
        59.264	             	  4.638e-001 	
        59.328	             	  4.638e-001 	
        59.336	  1.086e-002 	             	
        59.392	             	  4.639e-001 	
        59.399	  1.084e-002 	             	
        59.456	             	  4.639e-001 	
        59.463	  1.076e-002 	             	
        59.520	             	  4.639e-001 	
        59.527	  1.080e-002 	             	
        59.584	             	  4.638e-001 	
        59.591	  1.080e-002 	             	
        59.648	             	  4.637e-001 	
        59.655	  1.077e-002 	             	
        59.712	             	  4.636e-001 	
        59.719	  1.083e-002 	             	
        59.783	  1.086e-002 	             	
        59.808	             	  4.634e-001 	
        59.847	  1.087e-002 	             	
        59.872	             	  4.634e-001 	
        59.911	  1.081e-002 	             	
        59.936	             	  4.635e-001 	
        59.975	  1.088e-002 	             	
        60.000	             	  4.635e-001 	
        60.040	  1.089e-002 	             	
        60.064	             	  4.634e-001 	
        60.128	             	  4.635e-001 	
        60.135	  1.088e-002 	             	
        60.192	             	  4.634e-001 	
        60.199	  1.090e-002 	             	
        60.256	             	  4.635e-001 	
        60.263	  1.085e-002 	             	
        60.320	             	  4.635e-001 	
        60.327	  1.084e-002 	             	
        60.384	             	  4.635e-001 	
        60.391	  1.084e-002 	             	
        60.448	             	  4.635e-001 	
        60.455	  1.083e-002 	             	
        60.512	             	  4.636e-001 	
        60.519	  1.078e-002 	             	
        60.584	  1.077e-002 	             	
        60.608	             	  4.636e-001 	
        60.647	  1.074e-002 	             	
        60.672	             	  4.635e-001 	
        60.711	  1.080e-002 	             	
        60.736	             	  4.635e-001 	
        60.775	  1.072e-002 	             	
        60.800	             	  4.635e-001 	
        60.839	  1.054e-002 	             	
        60.864	             	  4.635e-001 	
        60.928	             	  4.634e-001 	
        60.935	  1.059e-002 	             	
        60.992	             	  4.633e-001 	
        60.999	  1.062e-002 	             	
        61.056	             	  4.631e-001 	
        61.063	  1.057e-002 	             	
        61.120	             	  4.630e-001 	
        61.127	  1.061e-002 	             	
        61.184	             	  4.629e-001 	
        61.191	  1.058e-002 	             	
        61.248	             	  4.627e-001 	
        61.255	  1.060e-002 	             	
        61.312	             	  4.627e-001 	
        61.319	  1.061e-002 	             	
        61.383	  1.057e-002 	             	
        61.408	             	  4.627e-001 	
        61.447	  1.052e-002 	             	
        61.472	             	  4.627e-001 	
        61.511	  1.052e-002 	             	
        61.536	             	  4.628e-001 	
        61.575	  1.045e-002 	             	
        61.600	             	  4.630e-001 	
        61.639	  1.051e-002 	             	
        61.664	             	  4.631e-001 	
        61.728	             	  4.631e-001 	
        61.735	  1.051e-002 	             	
        61.792	             	  4.633e-001 	
        61.799	  1.069e-002 	             	
        61.856	             	  4.633e-001 	
        61.863	  1.063e-002 	             	
        61.920	             	  4.634e-001 	
        61.927	  1.058e-002 	             	
        61.984	             	  4.635e-001 	
        61.991	  1.037e-002 	             	
        62.048	             	  4.634e-001 	
        62.055	  1.045e-002 	             	
        62.112	             	  4.634e-001 	
        62.119	  1.054e-002 	             	
        62.183	  1.055e-002 	             	
        62.208	             	  4.632e-001 	
        62.247	  1.059e-002 	             	
        62.272	             	  4.632e-001 	
        62.311	  1.050e-002 	             	
        62.336	             	  4.632e-001 	
        62.375	  1.056e-002 	             	
        62.400	             	  4.631e-001 	
        62.439	  1.059e-002 	             	
        62.464	             	  4.631e-001 	
        62.528	             	  4.632e-001 	
        62.535	  1.059e-002 	             	
        62.592	             	  4.632e-001 	
        62.599	  1.052e-002 	             	
        62.656	             	  4.631e-001 	
        62.663	  1.052e-002 	             	
        62.720	             	  4.631e-001 	
        62.727	  1.049e-002 	             	
        62.784	             	  4.631e-001 	
        62.791	  1.060e-002 	             	
        62.848	             	  4.631e-001 	
        62.855	  1.051e-002 	             	
        62.912	             	  4.632e-001 	
        62.919	  1.059e-002 	             	
        62.983	  1.052e-002 	             	
        63.008	             	  4.633e-001 	
        63.047	  1.055e-002 	             	
        63.072	             	  4.633e-001 	
        63.111	  1.056e-002 	             	
        63.136	             	  4.633e-001 	
        63.175	  1.053e-002 	             	
        63.200	             	  4.633e-001 	
        63.239	  1.055e-002 	             	
        63.264	             	  4.632e-001 	
        63.328	             	  4.632e-001 	
        63.335	  1.062e-002 	             	
        63.392	             	  4.632e-001 	
        63.399	  1.074e-002 	             	
        63.456	             	  4.632e-001 	
        63.463	  1.077e-002 	             	
        63.520	             	  4.632e-001 	
        63.527	  1.074e-002 	             	
        63.584	             	  4.632e-001 	
        63.591	  1.076e-002 	             	
        63.648	             	  4.633e-001 	
        63.655	  1.080e-002 	             	
        63.712	             	  4.634e-001 	
        63.719	  1.077e-002 	             	
        63.783	  1.075e-002 	             	
        63.808	             	  4.635e-001 	
        63.847	  1.080e-002 	             	
        63.872	             	  4.635e-001 	
        63.911	  1.082e-002 	             	
        63.936	             	  4.634e-001 	
        63.975	  1.067e-002 	             	
        64.000	             	  4.634e-001 	
        64.039	  1.072e-002 	             	
        64.064	             	  4.634e-001 	
        64.128	             	  4.634e-001 	
        64.135	  1.085e-002 	             	
        64.192	             	  4.634e-001 	
        64.199	  1.079e-002 	             	
        64.256	             	  4.634e-001 	
        64.263	  1.093e-002 	             	
        64.320	             	  4.635e-001 	
        64.327	  1.079e-002 	             	
        64.384	             	  4.635e-001 	
        64.391	  1.094e-002 	             	
        64.448	             	  4.636e-001 	
        64.455	  1.089e-002 	             	
        64.512	             	  4.637e-001 	
        64.519	  1.083e-002 	             	
        64.576	             	  4.637e-001 	
        64.583	  1.084e-002 	             	
        64.647	  1.089e-002 	             	
        64.672	             	  4.636e-001 	
        64.711	  1.085e-002 	             	
        64.736	             	  4.636e-001 	
        64.775	  1.084e-002 	             	
        64.800	             	  4.635e-001 	
        64.839	  1.091e-002 	             	
        64.864	             	  4.635e-001 	
        64.928	             	  4.635e-001 	
        64.935	  1.083e-002 	             	
        64.992	             	  4.634e-001 	
        64.999	  1.085e-002 	             	
        65.056	             	  4.633e-001 	
        65.063	  1.077e-002 	             	
        65.120	             	  4.632e-001 	
        65.127	  1.093e-002 	             	
        65.184	             	  4.631e-001 	
        65.191	  1.080e-002 	             	
        65.248	             	  4.631e-001 	
        65.255	  1.092e-002 	             	
        65.312	             	  4.630e-001 	
        65.319	  1.088e-002 	             	
        65.376	             	  4.630e-001 	
        65.383	  1.087e-002 	             	
        65.447	  1.085e-002 	             	
        65.472	             	  4.630e-001 	
        65.511	  1.086e-002 	             	
        65.536	             	  4.630e-001 	
        65.575	  1.085e-002 	             	
        65.600	             	  4.631e-001 	
        65.639	  1.077e-002 	             	
        65.664	             	  4.631e-001 	
        65.728	             	  4.631e-001 	
        65.735	  1.077e-002 	             	
        65.792	             	  4.632e-001 	
        65.799	  1.078e-002 	             	
        65.856	             	  4.632e-001 	
        65.863	  1.083e-002 	             	
        65.920	             	  4.633e-001 	
        65.927	  1.079e-002 	             	
        65.984	             	  4.633e-001 	
        65.991	  1.070e-002 	             	
        66.048	             	  4.633e-001 	
        66.055	  1.071e-002 	             	
        66.112	             	  4.633e-001 	
        66.119	  1.066e-002 	             	
        66.176	             	  4.633e-001 	
        66.183	  1.057e-002 	             	
        66.247	  1.053e-002 	             	
        66.272	             	  4.633e-001 	
        66.311	  1.053e-002 	             	
        66.336	             	  4.633e-001 	
        66.375	  1.055e-002 	             	
        66.400	             	  4.632e-001 	
        66.439	  1.056e-002 	             	
        66.464	             	  4.632e-001 	
        66.528	             	  4.632e-001 	
        66.535	  1.058e-002 	             	
        66.592	             	  4.633e-001 	
        66.599	  1.064e-002 	             	
        66.656	             	  4.633e-001 	
        66.663	  1.061e-002 	             	
        66.720	             	  4.634e-001 	
        66.727	  1.054e-002 	             	
        66.784	             	  4.634e-001 	
        66.791	  1.047e-002 	             	
        66.848	             	  4.633e-001 	
        66.855	  1.064e-002 	             	
        66.912	             	  4.632e-001 	
        66.919	  1.065e-002 	             	
        66.976	             	  4.632e-001 	
        66.983	  1.062e-002 	             	
        67.047	  1.055e-002 	             	
        67.072	             	  4.633e-001 	
        67.111	  1.049e-002 	             	
        67.136	             	  4.633e-001 	
        67.175	  1.052e-002 	             	
        67.200	             	  4.633e-001 	
        67.239	  1.050e-002 	             	
        67.264	             	  4.633e-001 	
        67.328	             	  4.633e-001 	
        67.335	  1.040e-002 	             	
        67.392	             	  4.633e-001 	
        67.399	  1.056e-002 	             	
        67.456	             	  4.632e-001 	
        67.463	  1.053e-002 	             	
        67.520	             	  4.632e-001 	
        67.527	  1.051e-002 	             	
        67.584	             	  4.633e-001 	
        67.591	  1.054e-002 	             	
        67.648	             	  4.634e-001 	
        67.655	  1.049e-002 	             	
        67.712	             	  4.635e-001 	
        67.719	  1.058e-002 	             	
        67.776	             	  4.635e-001 	
        67.783	  1.058e-002 	             	
        67.847	  1.052e-002 	             	
        67.872	             	  4.634e-001 	
        67.911	  1.053e-002 	             	
        67.936	             	  4.634e-001 	
        67.975	  1.060e-002 	             	
        68.000	             	  4.634e-001 	
        68.039	  1.059e-002 	             	
        68.064	             	  4.634e-001 	
        68.128	             	  4.635e-001 	
        68.135	  1.059e-002 	             	
        68.192	             	  4.636e-001 	
        68.199	  1.056e-002 	             	
        68.256	             	  4.636e-001 	
        68.263	  1.054e-002 	             	
        68.320	             	  4.636e-001 	
        68.327	  1.062e-002 	             	
        68.384	             	  4.636e-001 	
        68.391	  1.061e-002 	             	
        68.448	             	  4.637e-001 	
        68.455	  1.066e-002 	             	
        68.512	             	  4.638e-001 	
        68.519	  1.065e-002 	             	
        68.576	             	  4.639e-001 	
        68.583	  1.064e-002 	             	
        68.647	  1.058e-002 	             	
        68.672	             	  4.639e-001 	
        68.711	  1.066e-002 	             	
        68.736	             	  4.640e-001 	
        68.775	  1.069e-002 	             	
        68.800	             	  4.639e-001 	
        68.839	  1.077e-002 	             	
        68.864	             	  4.638e-001 	
        68.928	             	  4.637e-001 	
        68.935	  1.073e-002 	             	
        68.992	             	  4.637e-001 	
        68.999	  1.078e-002 	             	
        69.056	             	  4.637e-001 	
        69.063	  1.072e-002 	             	
        69.120	             	  4.637e-001 	
        69.127	  1.071e-002 	             	
        69.184	             	  4.636e-001 	
        69.191	  1.069e-002 	             	
        69.248	             	  4.636e-001 	
        69.255	  1.082e-002 	             	
        69.312	             	  4.635e-001 	
        69.319	  1.077e-002 	             	
        69.376	             	  4.636e-001 	
        69.383	  1.064e-002 	             	
        69.447	  1.083e-002 	             	
        69.472	             	  4.635e-001 	
        69.511	  1.077e-002 	             	
        69.536	             	  4.635e-001 	
        69.575	  1.076e-002 	             	
        69.600	             	  4.634e-001 	
        69.639	  1.090e-002 	             	
        69.664	             	  4.635e-001 	
        69.703	  1.087e-002 	             	
        69.728	             	  4.635e-001 	
        69.792	             	  4.636e-001 	
        69.799	  1.082e-002 	             	
        69.856	             	  4.637e-001 	
        69.863	  1.081e-002 	             	
        69.920	             	  4.638e-001 	
        69.927	  1.071e-002 	             	
        69.984	             	  4.639e-001 	
        69.991	  1.089e-002 	             	
        70.048	             	  4.639e-001 	
        70.055	  1.087e-002 	             	
        70.112	             	  4.639e-001 	
        70.119	  1.083e-002 	             	
        70.176	             	  4.638e-001 	
        70.183	  1.081e-002 	             	
        70.247	  1.073e-002 	             	
        70.272	             	  4.638e-001 	
        70.311	  1.082e-002 	             	
        70.336	             	  4.638e-001 	
        70.375	  1.077e-002 	             	
        70.400	             	  4.638e-001 	
        70.439	  1.077e-002 	             	
        70.464	             	  4.639e-001 	
        70.503	  1.077e-002 	             	
        70.528	             	  4.639e-001 	
        70.592	             	  4.639e-001 	
        70.599	  1.083e-002 	             	
        70.656	             	  4.639e-001 	
        70.663	  1.079e-002 	             	
        70.720	             	  4.639e-001 	
        70.727	  1.076e-002 	             	
        70.784	             	  4.639e-001 	
        70.791	  1.074e-002 	             	
        70.848	             	  4.639e-001 	
        70.855	  1.071e-002 	             	
        70.912	             	  4.639e-001 	
        70.919	  1.063e-002 	             	
        70.976	             	  4.638e-001 	
        70.983	  1.078e-002 	             	
        71.047	  1.073e-002 	             	
        71.072	             	  4.638e-001 	
        71.111	  1.069e-002 	             	
        71.136	             	  4.638e-001 	
        71.175	  1.062e-002 	             	
        71.200	             	  4.639e-001 	
        71.239	  1.063e-002 	             	
        71.264	             	  4.638e-001 	
        71.303	  1.062e-002 	             	
        71.327	             	  4.638e-001 	
        71.392	             	  4.638e-001 	
        71.399	  1.060e-002 	             	
        71.456	             	  4.638e-001 	
        71.463	  1.058e-002 	             	
        71.520	             	  4.638e-001 	
        71.527	  1.061e-002 	             	
        71.584	             	  4.639e-001 	
        71.591	  1.064e-002 	             	
        71.648	             	  4.639e-001 	
        71.655	  1.049e-002 	             	
        71.711	             	  4.640e-001 	
        71.719	  1.058e-002 	             	
        71.776	             	  4.641e-001 	
        71.783	  1.055e-002 	             	
        71.847	  1.050e-002 	             	
        71.872	             	  4.640e-001 	
        71.911	  1.056e-002 	             	
        71.935	             	  4.640e-001 	
        71.975	  1.053e-002 	             	
        71.999	             	  4.639e-001 	
        72.039	  1.054e-002 	             	
        72.064	             	  4.639e-001 	
        72.103	  1.052e-002 	             	
        72.127	             	  4.639e-001 	
        72.191	             	  4.639e-001 	
        72.199	  1.054e-002 	             	
        72.255	             	  4.639e-001 	
        72.263	  1.051e-002 	             	
        72.320	             	  4.640e-001 	
        72.327	  1.048e-002 	             	
        72.384	             	  4.640e-001 	
        72.391	  1.049e-002 	             	
        72.447	             	  4.640e-001 	
        72.455	  1.053e-002 	             	
        72.512	             	  4.639e-001 	
        72.519	  1.054e-002 	             	
        72.575	             	  4.639e-001 	
        72.583	  1.050e-002 	             	
        72.647	  1.053e-002 	             	
        72.671	             	  4.639e-001 	
        72.711	  1.051e-002 	             	
        72.735	             	  4.639e-001 	
        72.775	  1.046e-002 	             	
        72.799	             	  4.640e-001 	
        72.839	  1.051e-002 	             	
        72.863	             	  4.639e-001 	
        72.903	  1.047e-002 	             	
        72.928	             	  4.639e-001 	
        72.991	             	  4.639e-001 	
        72.999	  1.056e-002 	             	
        73.055	             	  4.639e-001 	
        73.063	  1.060e-002 	             	
        73.120	             	  4.639e-001 	
        73.128	  1.060e-002 	             	
        73.184	             	  4.639e-001 	
        73.192	  1.055e-002 	             	
        73.248	             	  4.639e-001 	
        73.256	  1.051e-002 	             	
        73.312	             	  4.639e-001 	
        73.320	  1.058e-002 	             	
        73.377	             	  4.639e-001 	
        73.384	  1.059e-002 	             	
        73.448	  1.059e-002 	             	
        73.472	             	  4.639e-001 	
        73.512	  1.061e-002 	             	
        73.536	             	  4.638e-001 	
        73.576	  1.059e-002 	             	
        73.600	             	  4.638e-001 	
        73.640	  1.056e-002 	             	
        73.664	             	  4.639e-001 	
        73.704	  1.065e-002 	             	
        73.728	             	  4.639e-001 	
        73.792	             	  4.639e-001 	
        73.800	  1.063e-002 	             	
        73.856	             	  4.639e-001 	
        73.864	  1.059e-002 	             	
        73.920	             	  4.638e-001 	
        73.928	  1.061e-002 	             	
        73.984	             	  4.637e-001 	
        73.992	  1.069e-002 	             	
        74.048	             	  4.637e-001 	
        74.056	  1.074e-002 	             	
        74.112	             	  4.637e-001 	
        74.120	  1.076e-002 	             	
        74.176	             	  4.637e-001 	
        74.184	  1.082e-002 	             	
        74.248	  1.077e-002 	             	
        74.272	             	  4.637e-001 	
        74.312	  1.071e-002 	             	
        74.336	             	  4.637e-001 	
        74.376	  1.072e-002 	             	
        74.400	             	  4.636e-001 	
        74.440	  1.073e-002 	             	
        74.464	             	  4.635e-001 	
        74.504	  1.074e-002 	             	
        74.528	             	  4.635e-001 	
        74.592	             	  4.634e-001 	
        74.600	  1.081e-002 	             	
        74.656	             	  4.634e-001 	
        74.664	  1.079e-002 	             	
        74.720	             	  4.634e-001 	
        74.728	  1.067e-002 	             	
        74.784	             	  4.634e-001 	
        74.792	  1.082e-002 	             	
        74.848	             	  4.634e-001 	
        74.856	  1.075e-002 	             	
        74.912	             	  4.634e-001 	
        74.920	  1.069e-002 	             	
        74.976	             	  4.634e-001 	
        74.984	  1.080e-002 	             	
        75.048	  1.079e-002 	             	
        75.072	             	  4.635e-001 	
        75.112	  1.085e-002 	             	
        75.136	             	  4.635e-001 	
        75.175	  1.086e-002 	             	
        75.200	             	  4.635e-001 	
        75.240	  1.076e-002 	             	
        75.264	             	  4.636e-001 	
        75.303	  1.073e-002 	             	
        75.328	             	  4.637e-001 	
        75.392	             	  4.637e-001 	
        75.400	  1.073e-002 	             	
        75.456	             	  4.637e-001 	
        75.464	  1.076e-002 	             	
        75.520	             	  4.637e-001 	
        75.527	  1.067e-002 	             	
        75.584	             	  4.636e-001 	
        75.592	  1.066e-002 	             	
        75.648	             	  4.635e-001 	
        75.656	  1.072e-002 	             	
        75.712	             	  4.634e-001 	
        75.720	  1.071e-002 	             	
        75.776	             	  4.634e-001 	
        75.784	  1.069e-002 	             	
        75.848	  1.066e-002 	             	
        75.872	             	  4.634e-001 	
        75.911	  1.071e-002 	             	
        75.936	             	  4.634e-001 	
        75.975	  1.068e-002 	             	
        76.000	             	  4.634e-001 	
        76.039	  1.069e-002 	             	
        76.064	             	  4.635e-001 	
        76.104	  1.071e-002 	             	
        76.128	             	  4.635e-001 	
        76.192	             	  4.635e-001 	
        76.199	  1.079e-002 	             	
        76.256	             	  4.635e-001 	
        76.263	  1.079e-002 	             	
        76.320	             	  4.636e-001 	
        76.327	  1.077e-002 	             	
        76.384	             	  4.636e-001 	
        76.391	  1.063e-002 	             	
        76.448	             	  4.636e-001 	
        76.455	  1.072e-002 	             	
        76.512	             	  4.637e-001 	
        76.519	  1.063e-002 	             	
        76.576	             	  4.637e-001 	
        76.583	  1.058e-002 	             	
        76.648	  1.057e-002 	             	
        76.672	             	  4.637e-001 	
        76.711	  1.061e-002 	             	
        76.736	             	  4.636e-001 	
        76.775	  1.062e-002 	             	
        76.800	             	  4.636e-001 	
        76.839	  1.059e-002 	             	
        76.864	             	  4.636e-001 	
        76.903	  1.058e-002 	             	
        76.928	             	  4.636e-001 	
        76.992	             	  4.635e-001 	
        76.999	  1.053e-002 	             	
        77.056	             	  4.635e-001 	
        77.063	  1.055e-002 	             	
        77.120	             	  4.635e-001 	
        77.127	  1.059e-002 	             	
        77.184	             	  4.635e-001 	
        77.191	  1.053e-002 	             	
        77.248	             	  4.636e-001 	
        77.255	  1.061e-002 	             	
        77.312	             	  4.636e-001 	
        77.319	  1.058e-002 	             	
        77.376	             	  4.637e-001 	
        77.383	  1.056e-002 	             	
        77.440	             	  4.637e-001 	
        77.447	  1.056e-002 	             	
        77.512	  1.063e-002 	             	
        77.536	             	  4.638e-001 	
        77.575	  1.058e-002 	             	
        77.600	             	  4.638e-001 	
        77.639	  1.052e-002 	             	
        77.664	             	  4.639e-001 	
        77.703	  1.053e-002 	             	
        77.728	             	  4.639e-001 	
        77.792	             	  4.640e-001 	
        77.799	  1.051e-002 	             	
        77.856	             	  4.640e-001 	
        77.863	  1.053e-002 	             	
        77.920	             	  4.641e-001 	
        77.927	  1.053e-002 	             	
        77.984	             	  4.640e-001 	
        77.991	  1.049e-002 	             	
        78.048	             	  4.640e-001 	
        78.055	  1.057e-002 	             	
        78.112	             	  4.640e-001 	
        78.119	  1.050e-002 	             	
        78.176	             	  4.640e-001 	
        78.183	  1.049e-002 	             	
        78.240	             	  4.639e-001 	
        78.247	  1.050e-002 	             	
        78.311	  1.054e-002 	             	
        78.336	             	  4.639e-001 	
        78.375	  1.049e-002 	             	
        78.400	             	  4.638e-001 	
        78.439	  1.058e-002 	             	
        78.464	             	  4.638e-001 	
        78.503	  1.054e-002 	             	
        78.528	             	  4.638e-001 	
        78.592	             	  4.638e-001 	
        78.599	  1.055e-002 	             	
        78.656	             	  4.638e-001 	
        78.663	  1.057e-002 	             	
        78.720	             	  4.637e-001 	
        78.727	  1.055e-002 	             	
        78.784	             	  4.637e-001 	
        78.791	  1.063e-002 	             	
        78.848	             	  4.637e-001 	
        78.855	  1.061e-002 	             	
        78.912	             	  4.637e-001 	
        78.919	  1.057e-002 	             	
        78.976	             	  4.638e-001 	
        78.983	  1.063e-002 	             	
        79.040	             	  4.638e-001 	
        79.047	  1.058e-002 	             	
        79.111	  1.061e-002 	             	
        79.136	             	  4.638e-001 	
        79.175	  1.059e-002 	             	
        79.200	             	  4.638e-001 	
        79.239	  1.066e-002 	             	
        79.264	             	  4.637e-001 	
        79.303	  1.064e-002 	             	
        79.328	             	  4.637e-001 	
        79.392	             	  4.637e-001 	
        79.399	  1.067e-002 	             	
        79.456	             	  4.638e-001 	
        79.463	  1.069e-002 	             	
        79.520	             	  4.638e-001 	
        79.527	  1.072e-002 	             	
        79.585	             	  4.637e-001 	
        79.591	  1.076e-002 	             	
        79.648	             	  4.637e-001 	
        79.655	  1.072e-002 	             	
        79.712	             	  4.636e-001 	
        79.719	  1.073e-002 	             	
        79.776	             	  4.636e-001 	
        79.783	  1.073e-002 	             	
        79.840	             	  4.635e-001 	
        79.847	  1.073e-002 	             	
        79.911	  1.060e-002 	             	
        79.936	             	  4.635e-001 	
        79.975	  1.079e-002 	             	
        80.000	             	  4.634e-001 	
        80.039	  1.074e-002 	             	
        80.064	             	  4.634e-001 	
        80.103	  1.075e-002 	             	
        80.128	             	  4.634e-001 	
        80.192	             	  4.635e-001 	
        80.199	  1.077e-002 	             	
        80.256	             	  4.636e-001 	
        80.263	  1.081e-002 	             	
        80.320	             	  4.636e-001 	
        80.327	  1.073e-002 	             	
        80.384	             	  4.637e-001 	
        80.391	  1.073e-002 	             	
        80.448	             	  4.637e-001 	
        80.455	  1.077e-002 	             	
        80.512	             	  4.637e-001 	
        80.519	  1.074e-002 	             	
        80.576	             	  4.636e-001 	
        80.583	  1.072e-002 	             	
        80.640	             	  4.636e-001 	
        80.647	  1.074e-002 	             	
        80.711	  1.071e-002 	             	
        80.736	             	  4.635e-001 	
        80.775	  1.079e-002 	             	
        80.800	             	  4.635e-001 	
        80.839	  1.074e-002 	             	
        80.864	             	  4.635e-001 	
        80.903	  1.080e-002 	             	
        80.928	             	  4.635e-001 	
        80.992	             	  4.635e-001 	
        80.999	  1.083e-002 	             	
        81.056	             	  4.635e-001 	
        81.063	  1.081e-002 	             	
        81.120	             	  4.635e-001 	
        81.127	  1.076e-002 	             	
        81.184	             	  4.634e-001 	
        81.191	  1.075e-002 	             	
        81.248	             	  4.634e-001 	
        81.255	  1.080e-002 	             	
        81.312	             	  4.634e-001 	
        81.319	  1.071e-002 	             	
        81.376	             	  4.634e-001 	
        81.383	  1.074e-002 	             	
        81.440	             	  4.634e-001 	
        81.447	  1.066e-002 	             	
        81.511	  1.063e-002 	             	
        81.536	             	  4.634e-001 	
        81.575	  1.066e-002 	             	
        81.600	             	  4.634e-001 	
        81.639	  1.077e-002 	             	
        81.664	             	  4.635e-001 	
        81.703	  1.071e-002 	             	
        81.728	             	  4.635e-001 	
        81.792	             	  4.635e-001 	
        81.799	  1.063e-002 	             	
        81.856	             	  4.635e-001 	
        81.863	  1.065e-002 	             	
        81.920	             	  4.635e-001 	
        81.927	  1.061e-002 	             	
        81.984	             	  4.633e-001 	
        81.991	  1.067e-002 	             	
        82.048	             	  4.631e-001 	
        82.055	  1.058e-002 	             	
        82.112	             	  4.630e-001 	
        82.119	  1.056e-002 	             	
        82.176	             	  4.630e-001 	
        82.183	  1.061e-002 	             	
        82.240	             	  4.631e-001 	
        82.247	  1.058e-002 	             	
        82.311	  1.060e-002 	             	
        82.336	             	  4.631e-001 	
        82.375	  1.054e-002 	             	
        82.400	             	  4.631e-001 	
        82.439	  1.046e-002 	             	
        82.464	             	  4.631e-001 	
        82.503	  1.041e-002 	             	
        82.528	             	  4.631e-001 	
        82.592	             	  4.630e-001 	
        82.599	  1.041e-002 	             	
        82.656	             	  4.630e-001 	
        82.663	  1.042e-002 	             	
        82.720	             	  4.630e-001 	
        82.727	  1.044e-002 	             	
        82.784	             	  4.629e-001 	
        82.791	  1.048e-002 	             	
        82.848	             	  4.629e-001 	
        82.855	  1.046e-002 	             	
        82.912	             	  4.629e-001 	
        82.919	  1.043e-002 	             	
        82.976	             	  4.629e-001 	
        82.983	  1.037e-002 	             	
        83.040	             	  4.629e-001 	
        83.047	  1.042e-002 	             	
        83.111	  1.054e-002 	             	
        83.136	             	  4.629e-001 	
        83.175	  1.049e-002 	             	
        83.200	             	  4.628e-001 	
        83.239	  1.052e-002 	             	
        83.264	             	  4.628e-001 	
        83.303	  1.060e-002 	             	
        83.328	             	  4.628e-001 	
        83.367	  1.052e-002 	             	
        83.392	             	  4.629e-001 	
        83.456	             	  4.630e-001 	
        83.463	  1.054e-002 	             	
        83.520	             	  4.631e-001 	
        83.527	  1.053e-002 	             	
        83.584	             	  4.631e-001 	
        83.591	  1.046e-002 	             	
        83.648	             	  4.631e-001 	
        83.655	  1.050e-002 	             	
        83.712	             	  4.630e-001 	
        83.719	  1.041e-002 	             	
        83.776	             	  4.629e-001 	
        83.783	  1.049e-002 	             	
        83.840	             	  4.629e-001 	
        83.847	  1.043e-002 	             	
        83.911	  1.041e-002 	             	
        83.936	             	  4.629e-001 	
        83.975	  1.048e-002 	             	
        84.000	             	  4.628e-001 	
        84.039	  1.051e-002 	             	
        84.064	             	  4.628e-001 	
        84.103	  1.055e-002 	             	
        84.128	             	  4.627e-001 	
        84.167	  1.054e-002 	             	
        84.192	             	  4.627e-001 	
        84.256	             	  4.627e-001 	
        84.263	  1.053e-002 	             	
        84.320	             	  4.627e-001 	
        84.327	  1.059e-002 	             	
        84.384	             	  4.627e-001 	
        84.391	  1.060e-002 	             	
        84.448	             	  4.627e-001 	
        84.455	  1.065e-002 	             	
        84.512	             	  4.628e-001 	
        84.519	  1.060e-002 	             	
        84.576	             	  4.628e-001 	
        84.583	  1.065e-002 	             	
        84.640	             	  4.629e-001 	
        84.647	  1.071e-002 	             	
        84.711	  1.065e-002 	             	
        84.736	             	  4.629e-001 	
        84.775	  1.073e-002 	             	
        84.800	             	  4.629e-001 	
        84.839	  1.071e-002 	             	
        84.864	             	  4.629e-001 	
        84.903	  1.070e-002 	             	
        84.928	             	  4.628e-001 	
        84.967	  1.075e-002 	             	
        84.992	             	  4.628e-001 	
        85.056	             	  4.627e-001 	
        85.063	  1.076e-002 	             	
        85.120	             	  4.627e-001 	
        85.127	  1.078e-002 	             	
        85.184	             	  4.628e-001 	
        85.191	  1.075e-002 	             	
        85.248	             	  4.629e-001 	
        85.255	  1.076e-002 	             	
        85.312	             	  4.631e-001 	
        85.319	  1.075e-002 	             	
        85.376	             	  4.632e-001 	
        85.383	  1.077e-002 	             	
        85.440	             	  4.632e-001 	
        85.447	  1.073e-002 	             	
        85.511	  1.073e-002 	             	
        85.536	             	  4.632e-001 	
        85.575	  1.070e-002 	             	
        85.600	             	  4.631e-001 	
        85.639	  1.063e-002 	             	
        85.664	             	  4.630e-001 	
        85.703	  1.070e-002 	             	
        85.728	             	  4.629e-001 	
        85.767	  1.071e-002 	             	
        85.792	             	  4.629e-001 	
        85.856	             	  4.629e-001 	
        85.863	  1.070e-002 	             	
        85.920	             	  4.628e-001 	
        85.927	  1.070e-002 	             	
        85.984	             	  4.627e-001 	
        85.991	  1.058e-002 	             	
        86.048	             	  4.627e-001 	
        86.055	  1.071e-002 	             	
        86.112	             	  4.627e-001 	
        86.119	  1.069e-002 	             	
        86.176	             	  4.627e-001 	
        86.183	  1.074e-002 	             	
        86.240	             	  4.627e-001 	
        86.247	  1.068e-002 	             	
        86.311	  1.071e-002 	             	
        86.336	             	  4.628e-001 	
        86.375	  1.069e-002 	             	
        86.400	             	  4.628e-001 	
        86.439	  1.072e-002 	             	
        86.464	             	  4.628e-001 	
        86.503	  1.070e-002 	             	
        86.528	             	  4.628e-001 	
        86.567	  1.068e-002 	             	
        86.592	             	  4.628e-001 	
        86.656	             	  4.628e-001 	
        86.663	  1.079e-002 	             	
        86.720	             	  4.627e-001 	
        86.727	  1.073e-002 	             	
        86.784	             	  4.627e-001 	
        86.791	  1.080e-002 	             	
        86.848	             	  4.628e-001 	
        86.855	  1.072e-002 	             	
        86.912	             	  4.628e-001 	
        86.919	  1.080e-002 	             	
        86.976	             	  4.629e-001 	
        86.983	  1.072e-002 	             	
        87.040	             	  4.629e-001 	
        87.047	  1.072e-002 	             	
        87.111	  1.064e-002 	             	
        87.136	             	  4.629e-001 	
        87.175	  1.061e-002 	             	
        87.200	             	  4.629e-001 	
        87.239	  1.056e-002 	             	
        87.264	             	  4.629e-001 	
        87.303	  1.056e-002 	             	
        87.328	             	  4.628e-001 	
        87.367	  1.061e-002 	             	
        87.392	             	  4.627e-001 	
        87.456	             	  4.627e-001 	
        87.463	  1.073e-002 	             	
        87.520	             	  4.627e-001 	
        87.527	  1.072e-002 	             	
        87.584	             	  4.627e-001 	
        87.591	  1.064e-002 	             	
        87.648	             	  4.627e-001 	
        87.655	  1.065e-002 	             	
        87.712	             	  4.628e-001 	
        87.719	  1.057e-002 	             	
        87.776	             	  4.628e-001 	
        87.783	  1.062e-002 	             	
        87.840	             	  4.628e-001 	
        87.847	  1.052e-002 	             	
        87.911	  1.047e-002 	             	
        87.936	             	  4.628e-001 	
        87.975	  1.060e-002 	             	
        88.000	             	  4.628e-001 	
        88.039	  1.064e-002 	             	
        88.064	             	  4.628e-001 	
        88.103	  1.063e-002 	             	
        88.128	             	  4.629e-001 	
        88.167	  1.044e-002 	             	
        88.191	             	  4.629e-001 	
        88.256	             	  4.630e-001 	
        88.263	  1.052e-002 	             	
        88.320	             	  4.630e-001 	
        88.327	  1.044e-002 	             	
        88.384	             	  4.631e-001 	
        88.391	  1.061e-002 	             	
        88.448	             	  4.631e-001 	
        88.455	  1.057e-002 	             	
        88.512	             	  4.630e-001 	
        88.519	  1.055e-002 	             	
        88.576	             	  4.630e-001 	
        88.583	  1.050e-002 	             	
        88.640	             	  4.630e-001 	
        88.647	  1.066e-002 	             	
        88.711	  1.048e-002 	             	
        88.736	             	  4.630e-001 	
        88.775	  1.045e-002 	             	
        88.800	             	  4.631e-001 	
        88.839	  1.051e-002 	             	
        88.864	             	  4.630e-001 	
        88.903	  1.062e-002 	             	
        88.928	             	  4.631e-001 	
        88.967	  1.034e-002 	             	
        88.992	             	  4.632e-001 	
        89.055	             	  4.632e-001 	
        89.063	  1.058e-002 	             	
        89.119	             	  4.633e-001 	
        89.127	  1.062e-002 	             	
        89.183	             	  4.634e-001 	
        89.191	  1.060e-002 	             	
        89.248	             	  4.634e-001 	
        89.255	  1.063e-002 	             	
        89.311	             	  4.634e-001 	
        89.319	  1.065e-002 	             	
        89.375	             	  4.634e-001 	
        89.383	  1.069e-002 	             	
        89.439	             	  4.633e-001 	
        89.447	  1.064e-002 	             	
        89.503	             	  4.633e-001 	
        89.511	  1.068e-002 	             	
        89.575	  1.076e-002 	             	
        89.599	             	  4.632e-001 	
        89.639	  1.073e-002 	             	
        89.663	             	  4.632e-001 	
        89.703	  1.069e-002 	             	
        89.727	             	  4.632e-001 	
        89.767	  1.064e-002 	             	
        89.791	             	  4.632e-001 	
        89.855	             	  4.633e-001 	
        89.863	  1.071e-002 	             	
        89.919	             	  4.633e-001 	
        89.927	  1.067e-002 	             	
        89.983	             	  4.633e-001 	
        89.991	  1.063e-002 	             	
        90.047	             	  4.633e-001 	
        90.055	  1.077e-002 	             	
        90.111	             	  4.633e-001 	
        90.119	  1.072e-002 	             	
        90.175	             	  4.632e-001 	
        90.183	  1.078e-002 	             	
        90.240	             	  4.632e-001 	
        90.247	  1.078e-002 	             	
        90.303	             	  4.633e-001 	
        90.311	  1.077e-002 	             	
        90.375	  1.086e-002 	             	
        90.399	             	  4.633e-001 	
        90.439	  1.082e-002 	             	
        90.463	             	  4.635e-001 	
        90.503	  1.082e-002 	             	
        90.527	             	  4.635e-001 	
        90.567	  1.085e-002 	             	
        90.592	             	  4.636e-001 	
        90.656	             	  4.636e-001 	
        90.664	  1.079e-002 	             	
        90.720	             	  4.636e-001 	
        90.728	  1.088e-002 	             	
        90.784	             	  4.636e-001 	
        90.792	  1.087e-002 	             	
        90.848	             	  4.635e-001 	
        90.856	  1.092e-002 	             	
        90.912	             	  4.635e-001 	
        90.920	  1.095e-002 	             	
        90.976	             	  4.635e-001 	
        90.984	  1.083e-002 	             	
        91.040	             	  4.635e-001 	
        91.048	  1.084e-002 	             	
        91.112	  1.087e-002 	             	
        91.136	             	  4.635e-001 	
        91.176	  1.083e-002 	             	
        91.201	             	  4.634e-001 	
        91.240	  1.081e-002 	             	
        91.264	             	  4.633e-001 	
        91.304	  1.081e-002 	             	
        91.328	             	  4.632e-001 	
        91.368	  1.087e-002 	             	
        91.392	             	  4.632e-001 	
        91.456	             	  4.631e-001 	
        91.464	  1.080e-002 	             	
        91.520	             	  4.631e-001 	
        91.528	  1.068e-002 	             	
        91.584	             	  4.632e-001 	
        91.592	  1.078e-002 	             	
        91.648	             	  4.632e-001 	
        91.656	  1.075e-002 	             	
        91.712	             	  4.633e-001 	
        91.720	  1.079e-002 	             	
        91.776	             	  4.634e-001 	
        91.784	  1.080e-002 	             	
        91.840	             	  4.634e-001 	
        91.848	  1.079e-002 	             	
        91.904	             	  4.634e-001 	
        91.912	  1.071e-002 	             	
        91.976	  1.073e-002 	             	
        92.000	             	  4.635e-001 	
        92.040	  1.074e-002 	             	
        92.064	             	  4.636e-001 	
        92.104	  1.069e-002 	             	
        92.128	             	  4.636e-001 	
        92.168	  1.073e-002 	             	
        92.192	             	  4.636e-001 	
        92.256	             	  4.635e-001 	
        92.264	  1.076e-002 	             	
        92.320	             	  4.635e-001 	
        92.328	  1.080e-002 	             	
        92.384	             	  4.634e-001 	
        92.392	  1.083e-002 	             	
        92.448	             	  4.634e-001 	
        92.456	  1.078e-002 	             	
        92.512	             	  4.634e-001 	
        92.520	  1.085e-002 	             	
        92.576	             	  4.634e-001 	
        92.583	  1.079e-002 	             	
        92.640	             	  4.633e-001 	
        92.648	  1.076e-002 	             	
        92.704	             	  4.633e-001 	
        92.712	  1.070e-002 	             	
        92.776	  1.072e-002 	             	
        92.800	             	  4.633e-001 	
        92.840	  1.068e-002 	             	
        92.864	             	  4.632e-001 	
        92.904	  1.073e-002 	             	
        92.928	             	  4.632e-001 	
        92.968	  1.069e-002 	             	
        92.992	             	  4.631e-001 	
        93.056	             	  4.631e-001 	
        93.064	  1.063e-002 	             	
        93.120	             	  4.631e-001 	
        93.128	  1.071e-002 	             	
        93.184	             	  4.630e-001 	
        93.191	  1.071e-002 	             	
        93.248	             	  4.630e-001 	
        93.255	  1.068e-002 	             	
        93.312	             	  4.630e-001 	
        93.320	  1.074e-002 	             	
        93.376	             	  4.630e-001 	
        93.384	  1.068e-002 	             	
        93.440	             	  4.630e-001 	
        93.447	  1.072e-002 	             	
        93.504	             	  4.630e-001 	
        93.511	  1.068e-002 	             	
        93.576	  1.071e-002 	             	
        93.600	             	  4.630e-001 	
        93.640	  1.070e-002 	             	
        93.664	             	  4.630e-001 	
        93.704	  1.080e-002 	             	
        93.728	             	  4.630e-001 	
        93.767	  1.076e-002 	             	
        93.792	             	  4.630e-001 	
        93.856	             	  4.631e-001 	
        93.863	  1.080e-002 	             	
        93.920	             	  4.631e-001 	
        93.927	  1.077e-002 	             	
        93.984	             	  4.632e-001 	
        93.991	  1.082e-002 	             	
        94.048	             	  4.632e-001 	
        94.055	  1.077e-002 	             	
        94.112	             	  4.632e-001 	
        94.119	  1.073e-002 	             	
        94.176	             	  4.632e-001 	
        94.183	  1.087e-002 	             	
        94.240	             	  4.632e-001 	
        94.247	  1.079e-002 	             	
        94.304	             	  4.632e-001 	
        94.311	  1.075e-002 	             	
        94.375	  1.075e-002 	             	
        94.400	             	  4.632e-001 	
        94.440	  1.078e-002 	             	
        94.464	             	  4.632e-001 	
        94.503	  1.074e-002 	             	
        94.528	             	  4.632e-001 	
        94.568	  1.071e-002 	             	
        94.592	             	  4.631e-001 	
        94.656	             	  4.631e-001 	
        94.663	  1.061e-002 	             	
        94.720	             	  4.630e-001 	
        94.727	  1.064e-002 	             	
        94.784	             	  4.629e-001 	
        94.791	  1.076e-002 	             	
        94.848	             	  4.628e-001 	
        94.855	  1.062e-002 	             	
        94.912	             	  4.627e-001 	
        94.919	  1.069e-002 	             	
        94.976	             	  4.627e-001 	
        94.983	  1.077e-002 	             	
        95.040	             	  4.627e-001 	
        95.047	  1.080e-002 	             	
        95.104	             	  4.627e-001 	
        95.111	  1.080e-002 	             	
        95.175	  1.079e-002 	             	
        95.200	             	  4.627e-001 	
        95.239	  1.084e-002 	             	
        95.264	             	  4.627e-001 	
        95.303	  1.084e-002 	             	
        95.328	             	  4.628e-001 	
        95.367	  1.081e-002 	             	
        95.392	             	  4.629e-001 	
        95.456	             	  4.629e-001 	
        95.463	  1.078e-002 	             	
        95.520	             	  4.629e-001 	
        95.527	  1.075e-002 	             	
        95.584	             	  4.629e-001 	
        95.591	  1.081e-002 	             	
        95.648	             	  4.629e-001 	
        95.655	  1.079e-002 	             	
        95.712	             	  4.629e-001 	
        95.719	  1.076e-002 	             	
        95.776	             	  4.630e-001 	
        95.783	  1.073e-002 	             	
        95.840	             	  4.629e-001 	
        95.847	  1.081e-002 	             	
        95.904	             	  4.629e-001 	
        95.911	  1.086e-002 	             	
        95.975	  1.091e-002 	             	
        96.000	             	  4.629e-001 	
        96.039	  1.091e-002 	             	
        96.064	             	  4.629e-001 	
        96.103	  1.083e-002 	             	
        96.128	             	  4.629e-001 	
        96.167	  1.079e-002 	             	
        96.192	             	  4.630e-001 	
        96.231	  1.077e-002 	             	
        96.256	             	  4.630e-001 	
        96.320	             	  4.629e-001 	
        96.327	  1.083e-002 	             	
        96.384	             	  4.629e-001 	
        96.391	  1.081e-002 	             	
        96.448	             	  4.628e-001 	
        96.455	  1.083e-002 	             	
        96.512	             	  4.628e-001 	
        96.519	  1.082e-002 	             	
        96.576	             	  4.627e-001 	
        96.583	  1.082e-002 	             	
        96.640	             	  4.627e-001 	
        96.647	  1.078e-002 	             	
        96.704	             	  4.627e-001 	
        96.711	  1.081e-002 	             	
        96.775	  1.083e-002 	             	
        96.800	             	  4.627e-001 	
        96.839	  1.084e-002 	             	
        96.864	             	  4.628e-001 	
        96.903	  1.081e-002 	             	
        96.928	             	  4.629e-001 	
        96.967	  1.083e-002 	             	
        96.992	             	  4.630e-001 	
        97.031	  1.080e-002 	             	
        97.056	             	  4.630e-001 	
        97.120	             	  4.631e-001 	
        97.127	  1.076e-002 	             	
        97.184	             	  4.632e-001 	
        97.191	  1.076e-002 	             	
        97.248	             	  4.632e-001 	
        97.255	  1.074e-002 	             	
        97.312	             	  4.632e-001 	
        97.319	  1.064e-002 	             	
        97.376	             	  4.631e-001 	
        97.384	  1.071e-002 	             	
        97.440	             	  4.631e-001 	
        97.447	  1.064e-002 	             	
        97.504	             	  4.631e-001 	
        97.511	  1.070e-002 	             	
        97.575	  1.066e-002 	             	
        97.600	             	  4.629e-001 	
        97.639	  1.077e-002 	             	
        97.664	             	  4.628e-001 	
        97.703	  1.070e-002 	             	
        97.728	             	  4.628e-001 	
        97.767	  1.059e-002 	             	
        97.792	             	  4.628e-001 	
        97.831	  1.074e-002 	             	
        97.856	             	  4.629e-001 	
        97.920	             	  4.629e-001 	
        97.927	  1.074e-002 	             	
        97.984	             	  4.629e-001 	
        97.991	  1.072e-002 	             	
        98.048	             	  4.629e-001 	
        98.055	  1.065e-002 	             	
        98.112	             	  4.629e-001 	
        98.119	  1.066e-002 	             	
        98.176	             	  4.629e-001 	
        98.183	  1.072e-002 	             	
        98.240	             	  4.628e-001 	
        98.247	  1.078e-002 	             	
        98.304	             	  4.627e-001 	
        98.311	  1.071e-002 	             	
        98.375	  1.078e-002 	             	
        98.400	             	  4.626e-001 	
        98.439	  1.078e-002 	             	
        98.464	             	  4.627e-001 	
        98.503	  1.073e-002 	             	
        98.528	             	  4.627e-001 	
        98.567	  1.080e-002 	             	
        98.592	             	  4.627e-001 	
        98.631	  1.072e-002 	             	
        98.656	             	  4.627e-001 	
        98.720	             	  4.628e-001 	
        98.727	  1.067e-002 	             	
        98.784	             	  4.628e-001 	
        98.791	  1.069e-002 	             	
        98.848	             	  4.628e-001 	
        98.855	  1.061e-002 	             	
        98.912	             	  4.627e-001 	
        98.919	  1.080e-002 	             	
        98.976	             	  4.626e-001 	
        98.983	  1.086e-002 	             	
        99.040	             	  4.626e-001 	
        99.047	  1.081e-002 	             	
        99.104	             	  4.626e-001 	
        99.111	  1.075e-002 	             	
        99.175	  1.090e-002 	             	
        99.200	             	  4.627e-001 	
        99.239	  1.081e-002 	             	
        99.264	             	  4.628e-001 	
        99.303	  1.081e-002 	             	
        99.328	             	  4.629e-001 	
        99.367	  1.077e-002 	             	
        99.392	             	  4.630e-001 	
        99.431	  1.069e-002 	             	
        99.456	             	  4.631e-001 	
        99.520	             	  4.632e-001 	
        99.527	  1.072e-002 	             	
        99.584	             	  4.632e-001 	
        99.591	  1.075e-002 	             	
        99.648	             	  4.633e-001 	
        99.655	  1.077e-002 	             	
        99.712	             	  4.633e-001 	
        99.719	  1.077e-002 	             	
        99.776	             	  4.633e-001 	
        99.783	  1.073e-002 	             	
        99.840	             	  4.633e-001 	
        99.847	  1.067e-002 	             	
        99.904	             	  4.633e-001 	
        99.911	  1.060e-002 	             	
        99.975	  1.065e-002 	             	
       100.000	             	  4.633e-001 	
       100.039	  1.063e-002 	             	
       100.064	             	  4.632e-001 	
       100.103	  1.068e-002 	             	
       100.128	             	  4.633e-001 	
       100.167	  1.064e-002 	             	
       100.192	             	  4.632e-001 	
       100.231	  1.066e-002 	             	
       100.256	             	  4.632e-001 	
       100.320	             	  4.633e-001 	
       100.327	  1.063e-002 	             	
       100.384	             	  4.634e-001 	
       100.391	  1.068e-002 	             	
       100.448	             	  4.633e-001 	
       100.455	  1.061e-002 	             	
       100.512	             	  4.633e-001 	
       100.519	  1.071e-002 	             	
       100.576	             	  4.633e-001 	
       100.583	  1.084e-002 	             	
       100.640	             	  4.632e-001 	
       100.647	  1.085e-002 	             	
       100.704	             	  4.633e-001 	
       100.711	  1.086e-002 	             	
       100.775	  1.090e-002 	             	
       100.800	             	  4.633e-001 	
       100.839	  1.092e-002 	             	
       100.864	             	  4.634e-001 	
       100.903	  1.087e-002 	             	
       100.928	             	  4.635e-001 	
       100.967	  1.095e-002 	             	
       100.992	             	  4.635e-001 	
       101.031	  1.091e-002 	             	
       101.056	             	  4.635e-001 	
       101.120	             	  4.635e-001 	
       101.127	  1.082e-002 	             	
       101.184	             	  4.634e-001 	
       101.191	  1.077e-002 	             	
       101.248	             	  4.633e-001 	
       101.255	  1.087e-002 	             	
       101.312	             	  4.632e-001 	
       101.319	  1.083e-002 	             	
       101.376	             	  4.632e-001 	
       101.383	  1.081e-002 	             	
       101.440	             	  4.632e-001 	
       101.447	  1.084e-002 	             	
       101.504	             	  4.632e-001 	
       101.511	  1.081e-002 	             	
       101.575	  1.087e-002 	             	
       101.600	             	  4.632e-001 	
       101.639	  1.090e-002 	             	
       101.664	             	  4.632e-001 	
       101.703	  1.086e-002 	             	
       101.728	             	  4.632e-001 	
       101.767	  1.092e-002 	             	
       101.792	             	  4.633e-001 	
       101.831	  1.094e-002 	             	
       101.856	             	  4.633e-001 	
       101.920	             	  4.634e-001 	
       101.927	  1.084e-002 	             	
       101.984	             	  4.633e-001 	
       101.991	  1.083e-002 	             	
       102.048	             	  4.633e-001 	
       102.055	  1.086e-002 	             	
       102.112	             	  4.633e-001 	
       102.119	  1.085e-002 	             	
       102.176	             	  4.634e-001 	
       102.183	  1.094e-002 	             	
       102.240	             	  4.634e-001 	
       102.247	  1.090e-002 	             	
       102.304	             	  4.634e-001 	
       102.311	  1.083e-002 	             	
       102.368	             	  4.634e-001 	
       102.375	  1.092e-002 	             	
       102.439	  1.085e-002 	             	
       102.464	             	  4.634e-001 	
       102.503	  1.081e-002 	             	
       102.528	             	  4.633e-001 	
       102.567	  1.075e-002 	             	
       102.592	             	  4.633e-001 	
       102.631	  1.077e-002 	             	
       102.656	             	  4.633e-001 	
       102.720	             	  4.632e-001 	
       102.727	  1.070e-002 	             	
       102.784	             	  4.631e-001 	
       102.791	  1.061e-002 	             	
       102.848	             	  4.630e-001 	
       102.855	  1.060e-002 	             	
       102.912	             	  4.629e-001 	
       102.919	  1.056e-002 	             	
       102.976	             	  4.628e-001 	
       102.983	  1.059e-002 	             	
       103.040	             	  4.629e-001 	
       103.047	  1.057e-002 	             	
       103.104	             	  4.629e-001 	
       103.111	  1.052e-002 	             	
       103.168	             	  4.629e-001 	
       103.175	  1.056e-002 	             	
       103.239	  1.058e-002 	             	
       103.264	             	  4.629e-001 	
       103.303	  1.054e-002 	             	
       103.328	             	  4.628e-001 	
       103.367	  1.055e-002 	             	
       103.392	             	  4.628e-001 	
       103.431	  1.056e-002 	             	
       103.456	             	  4.627e-001 	
       103.520	             	  4.627e-001 	
       103.527	  1.061e-002 	             	
       103.584	             	  4.627e-001 	
       103.591	  1.068e-002 	             	
       103.648	             	  4.627e-001 	
       103.655	  1.058e-002 	             	
       103.712	             	  4.626e-001 	
       103.719	  1.062e-002 	             	
       103.776	             	  4.626e-001 	
       103.783	  1.061e-002 	             	
       103.840	             	  4.627e-001 	
       103.847	  1.064e-002 	             	
       103.904	             	  4.627e-001 	
       103.911	  1.064e-002 	             	
       103.968	             	  4.627e-001 	
       103.975	  1.068e-002 	             	
       104.039	  1.064e-002 	             	
       104.064	             	  4.628e-001 	
       104.103	  1.060e-002 	             	
       104.128	             	  4.629e-001 	
       104.167	  1.065e-002 	             	
       104.192	             	  4.629e-001 	
       104.231	  1.075e-002 	             	
       104.256	             	  4.630e-001 	
       104.320	             	  4.630e-001 	
       104.327	  1.080e-002 	             	
       104.384	             	  4.630e-001 	
       104.391	  1.073e-002 	             	
       104.448	             	  4.630e-001 	
       104.455	  1.071e-002 	             	
       104.512	             	  4.630e-001 	
       104.519	  1.066e-002 	             	
       104.576	             	  4.630e-001 	
       104.583	  1.063e-002 	             	
       104.640	             	  4.630e-001 	
       104.647	  1.066e-002 	             	
       104.704	             	  4.630e-001 	
       104.711	  1.063e-002 	             	
       104.768	             	  4.630e-001 	
       104.775	  1.063e-002 	             	
       104.839	  1.059e-002 	             	
       104.864	             	  4.630e-001 	
       104.903	  1.061e-002 	             	
       104.928	             	  4.631e-001 	
       104.967	  1.060e-002 	             	
       104.992	             	  4.631e-001 	
       105.031	  1.059e-002 	             	
       105.056	             	  4.631e-001 	
       105.120	             	  4.631e-001 	
       105.127	  1.060e-002 	             	
       105.184	             	  4.632e-001 	
       105.191	  1.053e-002 	             	
       105.248	             	  4.632e-001 	
       105.255	  1.058e-002 	             	
       105.312	             	  4.632e-001 	
       105.319	  1.055e-002 	             	
       105.376	             	  4.632e-001 	
       105.383	  1.056e-002 	             	
       105.440	             	  4.633e-001 	
       105.447	  1.051e-002 	             	
       105.504	             	  4.633e-001 	
       105.511	  1.054e-002 	             	
       105.568	             	  4.633e-001 	
       105.575	  1.050e-002 	             	
       105.639	  1.051e-002 	             	
       105.664	             	  4.632e-001 	
       105.703	  1.056e-002 	             	
       105.728	             	  4.631e-001 	
       105.767	  1.058e-002 	             	
       105.792	             	  4.630e-001 	
       105.831	  1.063e-002 	             	
       105.856	             	  4.630e-001 	
       105.920	             	  4.630e-001 	
       105.927	  1.063e-002 	             	
       105.983	             	  4.630e-001 	
       105.991	  1.068e-002 	             	
       106.048	             	  4.629e-001 	
       106.055	  1.072e-002 	             	
       106.111	             	  4.630e-001 	
       106.119	  1.074e-002 	             	
       106.176	             	  4.630e-001 	
       106.183	  1.077e-002 	             	
       106.240	             	  4.631e-001 	
       106.247	  1.081e-002 	             	
       106.304	             	  4.631e-001 	
       106.311	  1.075e-002 	             	
       106.368	             	  4.631e-001 	
       106.375	  1.078e-002 	             	
       106.439	  1.077e-002 	             	
       106.464	             	  4.631e-001 	
       106.503	  1.076e-002 	             	
       106.528	             	  4.632e-001 	
       106.567	  1.082e-002 	             	
       106.592	             	  4.631e-001 	
       106.631	  1.087e-002 	             	
       106.655	             	  4.631e-001 	
       106.720	             	  4.630e-001 	
       106.727	  1.097e-002 	             	
       106.784	             	  4.629e-001 	
       106.791	  1.094e-002 	             	
       106.847	             	  4.629e-001 	
       106.855	  1.089e-002 	             	
       106.912	             	  4.629e-001 	
       106.919	  1.087e-002 	             	
       106.975	             	  4.629e-001 	
       106.983	  1.093e-002 	             	
       107.039	             	  4.629e-001 	
       107.047	  1.089e-002 	             	
       107.104	             	  4.629e-001 	
       107.111	  1.083e-002 	             	
       107.167	             	  4.630e-001 	
       107.175	  1.096e-002 	             	
       107.239	  1.091e-002 	             	
       107.263	             	  4.630e-001 	
       107.303	  1.079e-002 	             	
       107.327	             	  4.630e-001 	
       107.367	  1.083e-002 	             	
       107.391	             	  4.631e-001 	
       107.431	  1.086e-002 	             	
       107.455	             	  4.630e-001 	
       107.519	             	  4.630e-001 	
       107.527	  1.082e-002 	             	
       107.583	             	  4.631e-001 	
       107.591	  1.077e-002 	             	
       107.647	             	  4.631e-001 	
       107.655	  1.079e-002 	             	
       107.711	             	  4.631e-001 	
       107.719	  1.075e-002 	             	
       107.775	             	  4.630e-001 	
       107.783	  1.079e-002 	             	
       107.839	             	  4.630e-001 	
       107.847	  1.071e-002 	             	
       107.903	             	  4.630e-001 	
       107.911	  1.067e-002 	             	
       107.967	             	  4.630e-001 	
       107.975	  1.070e-002 	             	
       108.039	  1.066e-002 	             	
       108.063	             	  4.630e-001 	
       108.104	  1.056e-002 	             	
       108.128	             	  4.630e-001 	
       108.168	  1.064e-002 	             	
       108.192	             	  4.629e-001 	
       108.232	  1.056e-002 	             	
       108.256	             	  4.629e-001 	
       108.320	             	  4.629e-001 	
       108.328	  1.057e-002 	             	
       108.384	             	  4.629e-001 	
       108.392	  1.057e-002 	             	
       108.448	             	  4.629e-001 	
       108.456	  1.058e-002 	             	
       108.512	             	  4.629e-001 	
       108.520	  1.060e-002 	             	
       108.576	             	  4.629e-001 	
       108.584	  1.052e-002 	             	
       108.640	             	  4.629e-001 	
       108.648	  1.052e-002 	             	
       108.705	             	  4.629e-001 	
       108.712	  1.052e-002 	             	
       108.768	             	  4.629e-001 	
       108.776	  1.051e-002 	             	
       108.840	  1.059e-002 	             	
       108.864	             	  4.629e-001 	
       108.904	  1.061e-002 	             	
       108.928	             	  4.629e-001 	
       108.968	  1.052e-002 	             	
       108.992	             	  4.629e-001 	
       109.032	  1.053e-002 	             	
       109.056	             	  4.628e-001 	
       109.120	             	  4.627e-001 	
       109.128	  1.052e-002 	             	
       109.184	             	  4.627e-001 	
       109.192	  1.058e-002 	             	
       109.248	             	  4.626e-001 	
       109.256	  1.064e-002 	             	
       109.312	             	  4.626e-001 	
       109.320	  1.065e-002 	             	
       109.376	             	  4.626e-001 	
       109.384	  1.060e-002 	             	
       109.440	             	  4.627e-001 	
       109.448	  1.060e-002 	             	
       109.504	             	  4.627e-001 	
       109.512	  1.066e-002 	             	
       109.568	             	  4.627e-001 	
       109.576	  1.073e-002 	             	
       109.640	  1.058e-002 	             	
       109.664	             	  4.628e-001 	
       109.704	  1.058e-002 	             	
       109.728	             	  4.628e-001 	
       109.768	  1.061e-002 	             	
       109.792	             	  4.628e-001 	
       109.832	  1.068e-002 	             	
       109.856	             	  4.628e-001 	
       109.920	             	  4.628e-001 	
       109.928	  1.082e-002 	             	
       109.984	             	  4.629e-001 	
       109.992	  1.070e-002 	             	
       110.048	             	  4.629e-001 	
       110.056	  1.063e-002 	             	
       110.112	             	  4.629e-001 	
       110.120	  1.064e-002 	             	
       110.176	             	  4.628e-001 	
       110.184	  1.061e-002 	             	
       110.240	             	  4.628e-001 	
       110.248	  1.061e-002 	             	
       110.304	             	  4.628e-001 	
       110.312	  1.060e-002 	             	
       110.368	             	  4.629e-001 	
       110.375	  1.054e-002 	             	
       110.440	  1.056e-002 	             	
       110.464	             	  4.629e-001 	
       110.503	  1.060e-002 	             	
       110.528	             	  4.630e-001 	
       110.568	  1.059e-002 	             	
       110.592	             	  4.629e-001 	
       110.632	  1.055e-002 	             	
       110.656	             	  4.629e-001 	
       110.695	  1.057e-002 	             	
       110.720	             	  4.629e-001 	
       110.784	             	  4.630e-001 	
       110.792	  1.062e-002 	             	
       110.848	             	  4.629e-001 	
       110.856	  1.067e-002 	             	
       110.912	             	  4.629e-001 	
       110.919	  1.064e-002 	             	
       110.976	             	  4.630e-001 	
       110.983	  1.072e-002 	             	
       111.040	             	  4.630e-001 	
       111.047	  1.067e-002 	             	
       111.104	             	  4.630e-001 	
       111.112	  1.069e-002 	             	
       111.168	             	  4.630e-001 	
       111.176	  1.078e-002 	             	
       111.239	  1.073e-002 	             	
       111.264	             	  4.631e-001 	
       111.304	  1.068e-002 	             	
       111.328	             	  4.631e-001 	
       111.368	  1.077e-002 	             	
       111.392	             	  4.630e-001 	
       111.431	  1.072e-002 	             	
       111.456	             	  4.630e-001 	
       111.496	  1.076e-002 	             	
       111.520	             	  4.630e-001 	
       111.584	             	  4.631e-001 	
       111.591	  1.086e-002 	             	
       111.648	             	  4.630e-001 	
       111.656	  1.081e-002 	             	
       111.712	             	  4.630e-001 	
       111.719	  1.081e-002 	             	
       111.776	             	  4.630e-001 	
       111.783	  1.086e-002 	             	
       111.840	             	  4.630e-001 	
       111.847	  1.084e-002 	             	
       111.904	             	  4.629e-001 	
       111.911	  1.087e-002 	             	
       111.968	             	  4.630e-001 	
       111.975	  1.084e-002 	             	
       112.039	  1.088e-002 	             	
       112.064	             	  4.630e-001 	
       112.103	  1.081e-002 	             	
       112.128	             	  4.630e-001 	
       112.167	  1.083e-002 	             	
       112.192	             	  4.629e-001 	
       112.231	  1.089e-002 	             	
       112.256	             	  4.629e-001 	
       112.295	  1.075e-002 	             	
       112.320	             	  4.628e-001 	
       112.384	             	  4.628e-001 	
       112.391	  1.070e-002 	             	
       112.448	             	  4.628e-001 	
       112.455	  1.088e-002 	             	
       112.512	             	  4.628e-001 	
       112.519	  1.084e-002 	             	
       112.576	             	  4.628e-001 	
       112.583	  1.086e-002 	             	
       112.640	             	  4.628e-001 	
       112.647	  1.083e-002 	             	
       112.704	             	  4.628e-001 	
       112.711	  1.086e-002 	             	
       112.768	             	  4.628e-001 	
       112.775	  1.084e-002 	             	
       112.839	  1.082e-002 	             	
       112.864	             	  4.628e-001 	
       112.903	  1.075e-002 	             	
       112.928	             	  4.628e-001 	
       112.967	  1.085e-002 	             	
       112.992	             	  4.627e-001 	
       113.031	  1.077e-002 	             	
       113.056	             	  4.627e-001 	
       113.095	  1.077e-002 	             	
       113.120	             	  4.627e-001 	
       113.184	             	  4.627e-001 	
       113.191	  1.079e-002 	             	
       113.248	             	  4.628e-001 	
       113.255	  1.081e-002 	             	
       113.312	             	  4.628e-001 	
       113.319	  1.085e-002 	             	
       113.376	             	  4.628e-001 	
       113.383	  1.079e-002 	             	
       113.440	             	  4.629e-001 	
       113.447	  1.080e-002 	             	
       113.504	             	  4.629e-001 	
       113.511	  1.081e-002 	             	
       113.568	             	  4.629e-001 	
       113.575	  1.075e-002 	             	
       113.639	  1.076e-002 	             	
       113.664	             	  4.628e-001 	
       113.703	  1.074e-002 	             	
       113.728	             	  4.628e-001 	
       113.767	  1.072e-002 	             	
       113.792	             	  4.628e-001 	
       113.831	  1.075e-002 	             	
       113.856	             	  4.629e-001 	
       113.895	  1.082e-002 	             	
       113.920	             	  4.629e-001 	
       113.984	             	  4.629e-001 	
       113.991	  1.081e-002 	             	
       114.048	             	  4.629e-001 	
       114.055	  1.080e-002 	             	
       114.112	             	  4.629e-001 	
       114.119	  1.088e-002 	             	
       114.176	             	  4.629e-001 	
       114.183	  1.076e-002 	             	
       114.240	             	  4.630e-001 	
       114.247	  1.083e-002 	             	
       114.304	             	  4.630e-001 	
       114.311	  1.085e-002 	             	
       114.368	             	  4.630e-001 	
       114.375	  1.080e-002 	             	
       114.439	  1.080e-002 	             	
       114.464	             	  4.630e-001 	
       114.503	  1.092e-002 	             	
       114.528	             	  4.630e-001 	
       114.567	  1.070e-002 	             	
       114.592	             	  4.630e-001 	
       114.631	  1.076e-002 	             	
       114.656	             	  4.629e-001 	
       114.695	  1.085e-002 	             	
       114.720	             	  4.629e-001 	
       114.784	             	  4.629e-001 	
       114.791	  1.085e-002 	             	
       114.848	             	  4.628e-001 	
       114.855	  1.080e-002 	             	
       114.912	             	  4.628e-001 	
       114.919	  1.079e-002 	             	
       114.976	             	  4.628e-001 	
       114.983	  1.094e-002 	             	
       115.040	             	  4.629e-001 	
       115.047	  1.080e-002 	             	
       115.104	             	  4.629e-001 	
       115.111	  1.077e-002 	             	
       115.168	             	  4.629e-001 	
       115.175	  1.080e-002 	             	
       115.239	  1.079e-002 	             	
       115.264	             	  4.629e-001 	
       115.303	  1.075e-002 	             	
       115.328	             	  4.628e-001 	
       115.367	  1.078e-002 	             	
       115.392	             	  4.628e-001 	
       115.431	  1.076e-002 	             	
       115.456	             	  4.628e-001 	
       115.495	  1.070e-002 	             	
       115.520	             	  4.627e-001 	
       115.584	             	  4.626e-001 	
       115.591	  1.075e-002 	             	
       115.648	             	  4.626e-001 	
       115.655	  1.086e-002 	             	
       115.712	             	  4.625e-001 	
       115.719	  1.087e-002 	             	
       115.776	             	  4.625e-001 	
       115.783	  1.089e-002 	             	
       115.840	             	  4.626e-001 	
       115.847	  1.077e-002 	             	
       115.904	             	  4.627e-001 	
       115.911	  1.097e-002 	             	
       115.968	             	  4.628e-001 	
       115.975	  1.086e-002 	             	
       116.032	             	  4.629e-001 	
       116.039	  1.083e-002 	             	
       116.103	  1.079e-002 	             	
       116.128	             	  4.629e-001 	
       116.167	  1.083e-002 	             	
       116.192	             	  4.629e-001 	
       116.231	  1.082e-002 	             	
       116.256	             	  4.629e-001 	
       116.295	  1.080e-002 	             	
       116.320	             	  4.628e-001 	
       116.384	             	  4.628e-001 	
       116.391	  1.071e-002 	             	
       116.448	             	  4.627e-001 	
       116.455	  1.080e-002 	             	
       116.512	             	  4.627e-001 	
       116.519	  1.076e-002 	             	
       116.576	             	  4.627e-001 	
       116.583	  1.087e-002 	             	
       116.640	             	  4.627e-001 	
       116.647	  1.087e-002 	             	
       116.704	             	  4.627e-001 	
       116.711	  1.084e-002 	             	
       116.768	             	  4.628e-001 	
       116.775	  1.084e-002 	             	
       116.832	             	  4.629e-001 	
       116.839	  1.075e-002 	             	
       116.903	  1.084e-002 	             	
       116.928	             	  4.628e-001 	
       116.967	  1.072e-002 	             	
       116.992	             	  4.628e-001 	
       117.031	  1.078e-002 	             	
       117.056	             	  4.627e-001 	
       117.095	  1.085e-002 	             	
       117.120	             	  4.628e-001 	
       117.184	             	  4.628e-001 	
       117.191	  1.081e-002 	             	
       117.248	             	  4.629e-001 	
       117.255	  1.075e-002 	             	
       117.312	             	  4.629e-001 	
       117.319	  1.081e-002 	             	
       117.376	             	  4.629e-001 	
       117.383	  1.090e-002 	             	
       117.440	             	  4.629e-001 	
       117.447	  1.068e-002 	             	
       117.504	             	  4.628e-001 	
       117.511	  1.077e-002 	             	
       117.568	             	  4.628e-001 	
       117.575	  1.074e-002 	             	
       117.632	             	  4.628e-001 	
       117.639	  1.081e-002 	             	
       117.703	  1.079e-002 	             	
       117.728	             	  4.628e-001 	
       117.767	  1.077e-002 	             	
       117.792	             	  4.628e-001 	
       117.831	  1.077e-002 	             	
       117.856	             	  4.628e-001 	
       117.895	  1.078e-002 	             	
       117.920	             	  4.628e-001 	
       117.984	             	  4.628e-001 	
       117.991	  1.081e-002 	             	
       118.048	             	  4.629e-001 	
       118.055	  1.083e-002 	             	
       118.112	             	  4.629e-001 	
       118.119	  1.081e-002 	             	
       118.176	             	  4.629e-001 	
       118.183	  1.081e-002 	             	
       118.240	             	  4.629e-001 	
       118.247	  1.079e-002 	             	
       118.304	             	  4.629e-001 	
       118.311	  1.081e-002 	             	
       118.368	             	  4.629e-001 	
       118.375	  1.084e-002 	             	
       118.432	             	  4.630e-001 	
       118.439	  1.083e-002 	             	
       118.503	  1.076e-002 	             	
       118.528	             	  4.629e-001 	
       118.567	  1.084e-002 	             	
       118.592	             	  4.630e-001 	
       118.631	  1.080e-002 	             	
       118.656	             	  4.630e-001 	
       118.695	  1.080e-002 	             	
       118.720	             	  4.629e-001 	
       118.784	             	  4.629e-001 	
       118.791	  1.089e-002 	             	
       118.848	             	  4.629e-001 	
       118.855	  1.073e-002 	             	
       118.912	             	  4.629e-001 	
       118.919	  1.086e-002 	             	
       118.976	             	  4.629e-001 	
       118.983	  1.095e-002 	             	
       119.040	             	  4.630e-001 	
       119.047	  1.082e-002 	             	
       119.104	             	  4.631e-001 	
       119.111	  1.089e-002 	             	
       119.168	             	  4.632e-001 	
       119.175	  1.085e-002 	             	
       119.232	             	  4.632e-001 	
       119.239	  1.064e-002 	             	
       119.303	  1.081e-002 	             	
       119.328	             	  4.633e-001 	
       119.367	  1.090e-002 	             	
       119.392	             	  4.633e-001 	
       119.431	  1.091e-002 	             	
       119.456	             	  4.632e-001 	
       119.495	  1.084e-002 	             	
       119.520	             	  4.632e-001 	
       119.584	             	  4.631e-001 	
       119.591	  1.089e-002 	             	
       119.648	             	  4.631e-001 	
       119.655	  1.081e-002 	             	
       119.712	             	  4.630e-001 	
       119.719	  1.076e-002 	             	
       119.776	             	  4.629e-001 	
       119.783	  1.076e-002 	             	
       119.840	             	  4.629e-001 	
       119.847	  1.078e-002 	             	
       119.904	             	  4.628e-001 	
       119.911	  1.077e-002 	             	
       119.968	             	  4.628e-001 	
       119.975	  1.077e-002 	             	
