;PC Software:StarLab Version 2.10 Build 25
;Logged:22/09/2022 at 15:23:42
;File Version:3
;Graph Type:Line
;Notes:                                                            

;Channel A:Nova II Photodiode PD300-3W-v1 (s/n:763106)  NN2.52 (s/n:767396)
;Channel B:Vega Thermopile 10A-V1.1 (s/n:693380)  VG2.44 (s/n:858327)

;Channel A:Details
;Name:PD300-3W-v1
;Graph Color:RGB(0,102,255)
;Units:W
;Settings:Measuring:Power
;Settings:Wavelength:1064
;Settings:Range:AUTO
;Settings:Filter:IN

;Channel B:Details
;Name:10A-V1.1
;Graph Color:RGB(154,0,0)
;Units:W
;Settings:Measuring:Power
;Settings:Laser:.8-6
;Settings:Range:AUTO
;--------------------


;First Pulse Arrived : 22/09/2022 at 15:23:42.600000
  Timestamp   	  Channel A  	  Channel B  	
         0.000	  2.697e-001 	             	
         0.025	             	  3.417e-001 	
         0.089	             	  3.417e-001 	
         0.096	  2.672e-001 	             	
         0.160	  2.682e-001 	             	
         0.185	             	  3.417e-001 	
         0.224	  2.697e-001 	             	
         0.249	             	  3.417e-001 	
         0.288	  2.699e-001 	             	
         0.313	             	  3.417e-001 	
         0.352	  2.670e-001 	             	
         0.377	             	  3.417e-001 	
         0.416	  2.668e-001 	             	
         0.441	             	  3.418e-001 	
         0.480	  2.673e-001 	             	
         0.505	             	  3.418e-001 	
         0.544	  2.708e-001 	             	
         0.569	             	  3.418e-001 	
         0.608	  2.720e-001 	             	
         0.633	             	  3.418e-001 	
         0.672	  2.702e-001 	             	
         0.697	             	  3.417e-001 	
         0.736	  2.702e-001 	             	
         0.761	             	  3.417e-001 	
         0.800	  2.718e-001 	             	
         0.825	             	  3.417e-001 	
         0.889	             	  3.417e-001 	
         0.896	  2.701e-001 	             	
         0.960	  2.703e-001 	             	
         0.985	             	  3.417e-001 	
         1.024	  2.699e-001 	             	
         1.049	             	  3.417e-001 	
         1.088	  2.695e-001 	             	
         1.113	             	  3.418e-001 	
         1.152	  2.689e-001 	             	
         1.177	             	  3.418e-001 	
         1.216	  2.690e-001 	             	
         1.241	             	  3.418e-001 	
         1.280	  2.695e-001 	             	
         1.305	             	  3.418e-001 	
         1.344	  2.692e-001 	             	
         1.369	             	  3.418e-001 	
         1.408	  2.700e-001 	             	
         1.433	             	  3.417e-001 	
         1.472	  2.699e-001 	             	
         1.497	             	  3.417e-001 	
         1.536	  2.690e-001 	             	
         1.561	             	  3.417e-001 	
         1.600	  2.694e-001 	             	
         1.625	             	  3.417e-001 	
         1.689	             	  3.417e-001 	
         1.696	  2.698e-001 	             	
         1.760	  2.737e-001 	             	
         1.785	             	  3.417e-001 	
         1.824	  2.770e-001 	             	
         1.849	             	  3.417e-001 	
         1.888	  2.745e-001 	             	
         1.913	             	  3.417e-001 	
         1.952	  2.749e-001 	             	
         1.977	             	  3.417e-001 	
         2.016	  2.754e-001 	             	
         2.041	             	  3.417e-001 	
         2.080	  2.743e-001 	             	
         2.105	             	  3.417e-001 	
         2.144	  2.764e-001 	             	
         2.169	             	  3.417e-001 	
         2.208	  2.765e-001 	             	
         2.233	             	  3.417e-001 	
         2.272	  2.763e-001 	             	
         2.297	             	  3.417e-001 	
         2.336	  2.762e-001 	             	
         2.361	             	  3.417e-001 	
         2.400	  2.760e-001 	             	
         2.425	             	  3.416e-001 	
         2.489	             	  3.416e-001 	
         2.496	  2.777e-001 	             	
         2.560	  2.754e-001 	             	
         2.585	             	  3.416e-001 	
         2.624	  2.753e-001 	             	
         2.649	             	  3.415e-001 	
         2.688	  2.751e-001 	             	
         2.713	             	  3.415e-001 	
         2.752	  2.747e-001 	             	
         2.777	             	  3.414e-001 	
         2.816	  2.749e-001 	             	
         2.841	             	  3.415e-001 	
         2.880	  2.761e-001 	             	
         2.905	             	  3.415e-001 	
         2.944	  2.767e-001 	             	
         2.969	             	  3.414e-001 	
         3.008	  2.754e-001 	             	
         3.033	             	  3.415e-001 	
         3.072	  2.751e-001 	             	
         3.097	             	  3.414e-001 	
         3.136	  2.758e-001 	             	
         3.161	             	  3.414e-001 	
         3.200	  2.765e-001 	             	
         3.225	             	  3.413e-001 	
         3.289	             	  3.413e-001 	
         3.296	  2.776e-001 	             	
         3.360	  2.788e-001 	             	
         3.385	             	  3.413e-001 	
         3.424	  2.783e-001 	             	
         3.449	             	  3.413e-001 	
         3.488	  2.775e-001 	             	
         3.513	             	  3.413e-001 	
         3.552	  2.781e-001 	             	
         3.577	             	  3.413e-001 	
         3.616	  2.782e-001 	             	
         3.641	             	  3.412e-001 	
         3.680	  2.808e-001 	             	
         3.705	             	  3.412e-001 	
         3.744	  2.794e-001 	             	
         3.769	             	  3.412e-001 	
         3.808	  2.813e-001 	             	
         3.833	             	  3.412e-001 	
         3.872	  2.794e-001 	             	
         3.897	             	  3.412e-001 	
         3.936	  2.797e-001 	             	
         3.961	             	  3.412e-001 	
         4.000	  2.816e-001 	             	
         4.025	             	  3.413e-001 	
         4.089	             	  3.413e-001 	
         4.096	  2.825e-001 	             	
         4.160	  2.815e-001 	             	
         4.185	             	  3.413e-001 	
         4.224	  2.804e-001 	             	
         4.249	             	  3.413e-001 	
         4.288	  2.802e-001 	             	
         4.313	             	  3.413e-001 	
         4.352	  2.789e-001 	             	
         4.377	             	  3.413e-001 	
         4.416	  2.783e-001 	             	
         4.441	             	  3.412e-001 	
         4.480	  2.775e-001 	             	
         4.505	             	  3.412e-001 	
         4.544	  2.795e-001 	             	
         4.569	             	  3.412e-001 	
         4.608	  2.777e-001 	             	
         4.633	             	  3.412e-001 	
         4.672	  2.767e-001 	             	
         4.697	             	  3.412e-001 	
         4.736	  2.775e-001 	             	
         4.761	             	  3.412e-001 	
         4.800	  2.789e-001 	             	
         4.825	             	  3.412e-001 	
         4.889	             	  3.413e-001 	
         4.896	  2.793e-001 	             	
         4.960	  2.774e-001 	             	
         4.985	             	  3.413e-001 	
         5.024	  2.776e-001 	             	
         5.049	             	  3.414e-001 	
         5.088	  2.784e-001 	             	
         5.113	             	  3.414e-001 	
         5.152	  2.775e-001 	             	
         5.177	             	  3.414e-001 	
         5.216	  2.781e-001 	             	
         5.241	             	  3.413e-001 	
         5.280	  2.763e-001 	             	
         5.305	             	  3.413e-001 	
         5.344	  2.785e-001 	             	
         5.369	             	  3.414e-001 	
         5.408	  2.760e-001 	             	
         5.433	             	  3.414e-001 	
         5.472	  2.764e-001 	             	
         5.497	             	  3.415e-001 	
         5.536	  2.757e-001 	             	
         5.561	             	  3.414e-001 	
         5.600	  2.750e-001 	             	
         5.625	             	  3.413e-001 	
         5.689	             	  3.412e-001 	
         5.696	  2.746e-001 	             	
         5.760	  2.745e-001 	             	
         5.785	             	  3.411e-001 	
         5.824	  2.745e-001 	             	
         5.849	             	  3.411e-001 	
         5.888	  2.726e-001 	             	
         5.913	             	  3.411e-001 	
         5.952	  2.739e-001 	             	
         5.977	             	  3.411e-001 	
         6.016	  2.739e-001 	             	
         6.041	             	  3.412e-001 	
         6.080	  2.736e-001 	             	
         6.105	             	  3.412e-001 	
         6.144	  2.748e-001 	             	
         6.169	             	  3.413e-001 	
         6.208	  2.746e-001 	             	
         6.233	             	  3.413e-001 	
         6.272	  2.730e-001 	             	
         6.297	             	  3.413e-001 	
         6.336	  2.744e-001 	             	
         6.361	             	  3.413e-001 	
         6.400	  2.751e-001 	             	
         6.425	             	  3.413e-001 	
         6.489	             	  3.414e-001 	
         6.496	  2.758e-001 	             	
         6.560	  2.754e-001 	             	
         6.585	             	  3.414e-001 	
         6.624	  2.756e-001 	             	
         6.649	             	  3.414e-001 	
         6.688	  2.772e-001 	             	
         6.712	             	  3.413e-001 	
         6.752	  2.779e-001 	             	
         6.777	             	  3.413e-001 	
         6.816	  2.774e-001 	             	
         6.841	             	  3.413e-001 	
         6.880	  2.781e-001 	             	
         6.905	             	  3.413e-001 	
         6.944	  2.780e-001 	             	
         6.969	             	  3.414e-001 	
         7.008	  2.803e-001 	             	
         7.032	             	  3.413e-001 	
         7.072	  2.823e-001 	             	
         7.097	             	  3.413e-001 	
         7.136	  2.834e-001 	             	
         7.161	             	  3.412e-001 	
         7.200	  2.849e-001 	             	
         7.224	             	  3.413e-001 	
         7.289	             	  3.413e-001 	
         7.296	  2.847e-001 	             	
         7.360	  2.853e-001 	             	
         7.384	             	  3.414e-001 	
         7.424	  2.849e-001 	             	
         7.449	             	  3.415e-001 	
         7.488	  2.848e-001 	             	
         7.513	             	  3.415e-001 	
         7.552	  2.855e-001 	             	
         7.577	             	  3.415e-001 	
         7.616	  2.850e-001 	             	
         7.640	             	  3.415e-001 	
         7.680	  2.852e-001 	             	
         7.705	             	  3.415e-001 	
         7.744	  2.857e-001 	             	
         7.769	             	  3.415e-001 	
         7.808	  2.857e-001 	             	
         7.832	             	  3.415e-001 	
         7.872	  2.858e-001 	             	
         7.896	             	  3.415e-001 	
         7.936	  2.856e-001 	             	
         7.960	             	  3.415e-001 	
         8.000	  2.847e-001 	             	
         8.024	             	  3.415e-001 	
         8.089	             	  3.415e-001 	
         8.096	  2.854e-001 	             	
         8.160	  2.860e-001 	             	
         8.184	             	  3.415e-001 	
         8.224	  2.868e-001 	             	
         8.248	             	  3.415e-001 	
         8.288	  2.846e-001 	             	
         8.313	             	  3.415e-001 	
         8.352	  2.844e-001 	             	
         8.376	             	  3.415e-001 	
         8.416	  2.832e-001 	             	
         8.440	             	  3.416e-001 	
         8.480	  2.848e-001 	             	
         8.504	             	  3.415e-001 	
         8.544	  2.861e-001 	             	
         8.568	             	  3.415e-001 	
         8.608	  2.857e-001 	             	
         8.632	             	  3.415e-001 	
         8.672	  2.855e-001 	             	
         8.696	             	  3.416e-001 	
         8.736	  2.870e-001 	             	
         8.761	             	  3.416e-001 	
         8.800	  2.871e-001 	             	
         8.824	             	  3.415e-001 	
         8.888	             	  3.416e-001 	
         8.896	  2.866e-001 	             	
         8.960	  2.885e-001 	             	
         8.984	             	  3.416e-001 	
         9.024	  2.887e-001 	             	
         9.048	             	  3.415e-001 	
         9.088	  2.886e-001 	             	
         9.112	             	  3.414e-001 	
         9.152	  2.912e-001 	             	
         9.177	             	  3.414e-001 	
         9.216	  2.891e-001 	             	
         9.240	             	  3.414e-001 	
         9.280	  2.903e-001 	             	
         9.304	             	  3.415e-001 	
         9.344	  2.908e-001 	             	
         9.368	             	  3.415e-001 	
         9.408	  2.907e-001 	             	
         9.432	             	  3.416e-001 	
         9.472	  2.915e-001 	             	
         9.496	             	  3.417e-001 	
         9.536	  2.917e-001 	             	
         9.560	             	  3.417e-001 	
         9.600	  2.921e-001 	             	
         9.624	             	  3.416e-001 	
         9.688	             	  3.415e-001 	
         9.696	  2.948e-001 	             	
         9.760	  2.953e-001 	             	
         9.784	             	  3.414e-001 	
         9.824	  2.951e-001 	             	
         9.848	             	  3.413e-001 	
         9.888	  2.944e-001 	             	
         9.912	             	  3.413e-001 	
         9.952	  2.943e-001 	             	
         9.976	             	  3.413e-001 	
        10.016	  2.950e-001 	             	
        10.040	             	  3.413e-001 	
        10.080	  2.958e-001 	             	
        10.104	             	  3.413e-001 	
        10.144	  2.963e-001 	             	
        10.168	             	  3.412e-001 	
        10.208	  2.966e-001 	             	
        10.232	             	  3.412e-001 	
        10.272	  2.982e-001 	             	
        10.296	             	  3.413e-001 	
        10.336	  2.962e-001 	             	
        10.360	             	  3.413e-001 	
        10.400	  2.963e-001 	             	
        10.424	             	  3.414e-001 	
        10.488	             	  3.414e-001 	
        10.496	  2.968e-001 	             	
        10.560	  2.969e-001 	             	
        10.584	             	  3.415e-001 	
        10.624	  2.976e-001 	             	
        10.648	             	  3.415e-001 	
        10.688	  2.986e-001 	             	
        10.712	             	  3.415e-001 	
        10.752	  2.967e-001 	             	
        10.776	             	  3.415e-001 	
        10.816	  2.979e-001 	             	
        10.840	             	  3.414e-001 	
        10.880	  2.968e-001 	             	
        10.904	             	  3.413e-001 	
        10.944	  2.988e-001 	             	
        10.968	             	  3.412e-001 	
        11.008	  2.972e-001 	             	
        11.032	             	  3.412e-001 	
        11.072	  2.977e-001 	             	
        11.096	             	  3.412e-001 	
        11.136	  2.973e-001 	             	
        11.160	             	  3.412e-001 	
        11.200	  2.988e-001 	             	
        11.224	             	  3.412e-001 	
        11.288	             	  3.412e-001 	
        11.296	  2.981e-001 	             	
        11.360	  2.975e-001 	             	
        11.384	             	  3.413e-001 	
        11.424	  2.985e-001 	             	
        11.448	             	  3.413e-001 	
        11.488	  2.989e-001 	             	
        11.512	             	  3.413e-001 	
        11.552	  2.995e-001 	             	
        11.576	             	  3.413e-001 	
        11.616	  2.983e-001 	             	
        11.640	             	  3.414e-001 	
        11.704	             	  3.414e-001 	
        11.768	             	  3.415e-001 	
        11.832	             	  3.416e-001 	
        11.871	  3.010e-001 	             	
        11.896	             	  3.417e-001 	
        11.936	  3.020e-001 	             	
        11.960	             	  3.417e-001 	
        11.999	  3.010e-001 	             	
        12.025	             	  3.416e-001 	
        12.063	  3.000e-001 	             	
        12.088	             	  3.416e-001 	
        12.159	  3.020e-001 	             	
        12.184	             	  3.416e-001 	
        12.223	  3.020e-001 	             	
        12.248	             	  3.416e-001 	
        12.288	  3.020e-001 	             	
        12.312	             	  3.415e-001 	
        12.352	  3.030e-001 	             	
        12.376	             	  3.415e-001 	
        12.416	  3.010e-001 	             	
        12.440	             	  3.415e-001 	
        12.480	  3.020e-001 	             	
        12.504	             	  3.415e-001 	
        12.544	  3.020e-001 	             	
        12.568	             	  3.415e-001 	
        12.607	  3.020e-001 	             	
        12.632	             	  3.414e-001 	
        12.671	  3.030e-001 	             	
        12.696	             	  3.413e-001 	
        12.735	  3.040e-001 	             	
        12.760	             	  3.413e-001 	
        12.799	  3.020e-001 	             	
        12.824	             	  3.413e-001 	
        12.863	  3.050e-001 	             	
        12.888	             	  3.414e-001 	
        12.952	             	  3.414e-001 	
        12.959	  3.050e-001 	             	
        13.023	  3.050e-001 	             	
        13.048	             	  3.414e-001 	
        13.087	  3.030e-001 	             	
        13.112	             	  3.414e-001 	
        13.151	  3.030e-001 	             	
        13.176	             	  3.413e-001 	
        13.215	  3.020e-001 	             	
        13.240	             	  3.413e-001 	
        13.279	  3.020e-001 	             	
        13.304	             	  3.413e-001 	
        13.343	  3.030e-001 	             	
        13.368	             	  3.413e-001 	
        13.408	  3.020e-001 	             	
        13.432	             	  3.413e-001 	
        13.471	  3.000e-001 	             	
        13.496	             	  3.412e-001 	
        13.535	  3.010e-001 	             	
        13.560	             	  3.412e-001 	
        13.599	  3.030e-001 	             	
        13.624	             	  3.412e-001 	
        13.663	  3.040e-001 	             	
        13.688	             	  3.412e-001 	
        13.752	             	  3.412e-001 	
        13.759	  3.030e-001 	             	
        13.823	  3.060e-001 	             	
        13.848	             	  3.411e-001 	
        13.887	  3.080e-001 	             	
        13.912	             	  3.411e-001 	
        13.951	  3.080e-001 	             	
        13.976	             	  3.410e-001 	
        14.015	  3.080e-001 	             	
        14.040	             	  3.410e-001 	
        14.079	  3.080e-001 	             	
        14.104	             	  3.410e-001 	
        14.143	  3.100e-001 	             	
        14.168	             	  3.411e-001 	
        14.207	  3.110e-001 	             	
        14.232	             	  3.411e-001 	
        14.271	  3.120e-001 	             	
        14.296	             	  3.411e-001 	
        14.335	  3.140e-001 	             	
        14.360	             	  3.411e-001 	
        14.399	  3.140e-001 	             	
        14.424	             	  3.411e-001 	
        14.463	  3.120e-001 	             	
        14.488	             	  3.410e-001 	
        14.552	             	  3.410e-001 	
        14.559	  3.130e-001 	             	
        14.623	  3.150e-001 	             	
        14.648	             	  3.411e-001 	
        14.687	  3.140e-001 	             	
        14.712	             	  3.410e-001 	
        14.752	  3.160e-001 	             	
        14.777	             	  3.411e-001 	
        14.816	  3.170e-001 	             	
        14.841	             	  3.411e-001 	
        14.880	  3.190e-001 	             	
        14.905	             	  3.411e-001 	
        14.944	  3.180e-001 	             	
        14.969	             	  3.411e-001 	
        15.008	  3.190e-001 	             	
        15.033	             	  3.412e-001 	
        15.072	  3.180e-001 	             	
        15.097	             	  3.411e-001 	
        15.136	  3.180e-001 	             	
        15.161	             	  3.411e-001 	
        15.200	  3.200e-001 	             	
        15.225	             	  3.412e-001 	
        15.264	  3.190e-001 	             	
        15.289	             	  3.412e-001 	
        15.353	             	  3.411e-001 	
        15.360	  3.210e-001 	             	
        15.424	  3.220e-001 	             	
        15.449	             	  3.410e-001 	
        15.488	  3.210e-001 	             	
        15.513	             	  3.410e-001 	
        15.552	  3.220e-001 	             	
        15.577	             	  3.410e-001 	
        15.616	  3.200e-001 	             	
        15.641	             	  3.411e-001 	
        15.680	  3.210e-001 	             	
        15.705	             	  3.412e-001 	
        15.744	  3.210e-001 	             	
        15.769	             	  3.413e-001 	
        15.808	  3.210e-001 	             	
        15.833	             	  3.413e-001 	
        15.872	  3.220e-001 	             	
        15.897	             	  3.412e-001 	
        15.936	  3.210e-001 	             	
        15.961	             	  3.412e-001 	
        16.000	  3.210e-001 	             	
        16.025	             	  3.411e-001 	
        16.064	  3.210e-001 	             	
        16.089	             	  3.411e-001 	
        16.153	             	  3.411e-001 	
        16.160	  3.220e-001 	             	
        16.224	  3.220e-001 	             	
        16.249	             	  3.412e-001 	
        16.288	  3.200e-001 	             	
        16.313	             	  3.412e-001 	
        16.352	  3.200e-001 	             	
        16.377	             	  3.412e-001 	
        16.416	  3.230e-001 	             	
        16.441	             	  3.412e-001 	
        16.480	  3.220e-001 	             	
        16.505	             	  3.412e-001 	
        16.544	  3.200e-001 	             	
        16.569	             	  3.411e-001 	
        16.608	  3.210e-001 	             	
        16.633	             	  3.411e-001 	
        16.672	  3.200e-001 	             	
        16.697	             	  3.411e-001 	
        16.736	  3.200e-001 	             	
        16.761	             	  3.410e-001 	
        16.800	  3.230e-001 	             	
        16.825	             	  3.409e-001 	
        16.864	  3.230e-001 	             	
        16.889	             	  3.409e-001 	
        16.953	             	  3.409e-001 	
        16.960	  3.240e-001 	             	
        17.024	  3.220e-001 	             	
        17.049	             	  3.409e-001 	
        17.088	  3.220e-001 	             	
        17.113	             	  3.410e-001 	
        17.152	  3.270e-001 	             	
        17.177	             	  3.410e-001 	
        17.216	  3.260e-001 	             	
        17.241	             	  3.410e-001 	
        17.280	  3.260e-001 	             	
        17.305	             	  3.411e-001 	
        17.344	  3.250e-001 	             	
        17.369	             	  3.412e-001 	
        17.408	  3.270e-001 	             	
        17.433	             	  3.411e-001 	
        17.472	  3.260e-001 	             	
        17.497	             	  3.412e-001 	
        17.536	  3.260e-001 	             	
        17.561	             	  3.412e-001 	
        17.600	  3.240e-001 	             	
        17.625	             	  3.412e-001 	
        17.664	  3.220e-001 	             	
        17.689	             	  3.411e-001 	
        17.753	             	  3.411e-001 	
        17.760	  3.220e-001 	             	
        17.824	  3.230e-001 	             	
        17.849	             	  3.410e-001 	
        17.888	  3.250e-001 	             	
        17.913	             	  3.409e-001 	
        17.952	  3.240e-001 	             	
        17.977	             	  3.409e-001 	
        18.016	  3.260e-001 	             	
        18.041	             	  3.408e-001 	
        18.080	  3.260e-001 	             	
        18.105	             	  3.409e-001 	
        18.144	  3.270e-001 	             	
        18.169	             	  3.409e-001 	
        18.208	  3.280e-001 	             	
        18.233	             	  3.410e-001 	
        18.272	  3.270e-001 	             	
        18.297	             	  3.410e-001 	
        18.336	  3.260e-001 	             	
        18.361	             	  3.410e-001 	
        18.400	  3.260e-001 	             	
        18.425	             	  3.411e-001 	
        18.464	  3.270e-001 	             	
        18.489	             	  3.411e-001 	
        18.553	             	  3.411e-001 	
        18.560	  3.290e-001 	             	
        18.624	  3.280e-001 	             	
        18.649	             	  3.411e-001 	
        18.688	  3.260e-001 	             	
        18.713	             	  3.411e-001 	
        18.752	  3.250e-001 	             	
        18.777	             	  3.412e-001 	
        18.816	  3.280e-001 	             	
        18.841	             	  3.412e-001 	
        18.880	  3.270e-001 	             	
        18.905	             	  3.412e-001 	
        18.944	  3.280e-001 	             	
        18.969	             	  3.413e-001 	
        19.008	  3.290e-001 	             	
        19.033	             	  3.413e-001 	
        19.072	  3.270e-001 	             	
        19.097	             	  3.413e-001 	
        19.136	  3.270e-001 	             	
        19.161	             	  3.413e-001 	
        19.200	  3.270e-001 	             	
        19.225	             	  3.412e-001 	
        19.264	  3.270e-001 	             	
        19.289	             	  3.412e-001 	
        19.353	             	  3.412e-001 	
        19.360	  3.260e-001 	             	
        19.424	  3.240e-001 	             	
        19.449	             	  3.412e-001 	
        19.488	  3.270e-001 	             	
        19.513	             	  3.412e-001 	
        19.552	  3.290e-001 	             	
        19.577	             	  3.412e-001 	
        19.616	  3.300e-001 	             	
        19.641	             	  3.413e-001 	
        19.680	  3.290e-001 	             	
        19.705	             	  3.414e-001 	
        19.744	  3.310e-001 	             	
        19.769	             	  3.414e-001 	
        19.808	  3.330e-001 	             	
        19.833	             	  3.415e-001 	
        19.872	  3.310e-001 	             	
        19.897	             	  3.415e-001 	
        19.936	  3.320e-001 	             	
        19.961	             	  3.415e-001 	
        20.000	  3.330e-001 	             	
        20.025	             	  3.415e-001 	
        20.064	  3.330e-001 	             	
        20.089	             	  3.415e-001 	
        20.153	             	  3.415e-001 	
        20.160	  3.330e-001 	             	
        20.224	  3.340e-001 	             	
        20.249	             	  3.415e-001 	
        20.288	  3.320e-001 	             	
        20.313	             	  3.415e-001 	
        20.352	  3.350e-001 	             	
        20.377	             	  3.414e-001 	
        20.416	  3.360e-001 	             	
        20.441	             	  3.414e-001 	
        20.480	  3.330e-001 	             	
        20.505	             	  3.414e-001 	
        20.544	  3.340e-001 	             	
        20.569	             	  3.414e-001 	
        20.608	  3.340e-001 	             	
        20.633	             	  3.415e-001 	
        20.672	  3.340e-001 	             	
        20.697	             	  3.415e-001 	
        20.736	  3.340e-001 	             	
        20.761	             	  3.416e-001 	
        20.800	  3.340e-001 	             	
        20.825	             	  3.417e-001 	
        20.864	  3.300e-001 	             	
        20.889	             	  3.418e-001 	
        20.953	             	  3.419e-001 	
        20.960	  3.230e-001 	             	
        21.024	  3.190e-001 	             	
        21.049	             	  3.419e-001 	
        21.088	  3.200e-001 	             	
        21.113	             	  3.420e-001 	
        21.152	  3.190e-001 	             	
        21.177	             	  3.420e-001 	
        21.216	  3.290e-001 	             	
        21.241	             	  3.420e-001 	
        21.280	  3.330e-001 	             	
        21.305	             	  3.419e-001 	
        21.344	  3.330e-001 	             	
        21.369	             	  3.419e-001 	
        21.408	  3.300e-001 	             	
        21.433	             	  3.420e-001 	
        21.472	  3.320e-001 	             	
        21.497	             	  3.419e-001 	
        21.536	  3.310e-001 	             	
        21.561	             	  3.419e-001 	
        21.600	  3.330e-001 	             	
        21.625	             	  3.418e-001 	
        21.664	  3.310e-001 	             	
        21.689	             	  3.418e-001 	
        21.753	             	  3.417e-001 	
        21.760	  3.310e-001 	             	
        21.824	  3.310e-001 	             	
        21.849	             	  3.417e-001 	
        21.888	  3.300e-001 	             	
        21.913	             	  3.417e-001 	
        21.952	  3.320e-001 	             	
        21.977	             	  3.417e-001 	
        22.016	  3.310e-001 	             	
        22.041	             	  3.419e-001 	
        22.080	  3.300e-001 	             	
        22.105	             	  3.419e-001 	
        22.144	  3.300e-001 	             	
        22.169	             	  3.420e-001 	
        22.208	  3.310e-001 	             	
        22.233	             	  3.420e-001 	
        22.272	  3.290e-001 	             	
        22.297	             	  3.421e-001 	
        22.336	  3.290e-001 	             	
        22.361	             	  3.421e-001 	
        22.400	  3.280e-001 	             	
        22.425	             	  3.421e-001 	
        22.464	  3.300e-001 	             	
        22.489	             	  3.420e-001 	
        22.553	             	  3.420e-001 	
        22.560	  3.270e-001 	             	
        22.624	  3.270e-001 	             	
        22.649	             	  3.420e-001 	
        22.688	  3.260e-001 	             	
        22.713	             	  3.420e-001 	
        22.752	  3.250e-001 	             	
        22.777	             	  3.420e-001 	
        22.816	  3.260e-001 	             	
        22.841	             	  3.420e-001 	
        22.880	  3.250e-001 	             	
        22.905	             	  3.420e-001 	
        22.944	  3.250e-001 	             	
        22.969	             	  3.420e-001 	
        23.008	  3.240e-001 	             	
        23.033	             	  3.420e-001 	
        23.072	  3.230e-001 	             	
        23.097	             	  3.419e-001 	
        23.136	  3.240e-001 	             	
        23.161	             	  3.419e-001 	
        23.200	  3.220e-001 	             	
        23.225	             	  3.419e-001 	
        23.264	  3.220e-001 	             	
        23.289	             	  3.419e-001 	
        23.353	             	  3.418e-001 	
        23.360	  3.210e-001 	             	
        23.424	  3.210e-001 	             	
        23.449	             	  3.419e-001 	
        23.488	  3.200e-001 	             	
        23.513	             	  3.420e-001 	
        23.552	  3.210e-001 	             	
        23.577	             	  3.420e-001 	
        23.616	  3.210e-001 	             	
        23.641	             	  3.420e-001 	
        23.680	  3.190e-001 	             	
        23.705	             	  3.419e-001 	
        23.744	  3.190e-001 	             	
        23.769	             	  3.419e-001 	
        23.808	  3.190e-001 	             	
        23.833	             	  3.419e-001 	
        23.872	  3.170e-001 	             	
        23.897	             	  3.419e-001 	
        23.936	  3.150e-001 	             	
        23.961	             	  3.419e-001 	
        24.000	  3.140e-001 	             	
        24.025	             	  3.419e-001 	
        24.064	  3.160e-001 	             	
        24.089	             	  3.419e-001 	
        24.153	             	  3.420e-001 	
        24.160	  3.130e-001 	             	
        24.224	  3.140e-001 	             	
        24.249	             	  3.420e-001 	
        24.288	  3.130e-001 	             	
        24.313	             	  3.421e-001 	
        24.352	  3.130e-001 	             	
        24.377	             	  3.421e-001 	
        24.416	  3.120e-001 	             	
        24.441	             	  3.420e-001 	
        24.480	  3.100e-001 	             	
        24.505	             	  3.419e-001 	
        24.544	  3.080e-001 	             	
        24.569	             	  3.419e-001 	
        24.608	  3.080e-001 	             	
        24.632	             	  3.419e-001 	
        24.672	  3.080e-001 	             	
        24.697	             	  3.419e-001 	
        24.736	  3.070e-001 	             	
        24.761	             	  3.418e-001 	
        24.800	  3.080e-001 	             	
        24.825	             	  3.418e-001 	
        24.864	  3.070e-001 	             	
        24.889	             	  3.418e-001 	
        24.953	             	  3.418e-001 	
        24.960	  3.040e-001 	             	
        25.017	             	  3.419e-001 	
        25.024	  3.040e-001 	             	
        25.088	  3.040e-001 	             	
        25.112	             	  3.419e-001 	
        25.152	  3.020e-001 	             	
        25.177	             	  3.420e-001 	
        25.216	  3.020e-001 	             	
        25.241	             	  3.420e-001 	
        25.280	  3.010e-001 	             	
        25.304	             	  3.419e-001 	
        25.344	  3.010e-001 	             	
        25.369	             	  3.420e-001 	
        25.408	  3.010e-001 	             	
        25.433	             	  3.420e-001 	
        25.472	  2.990e-001 	             	
        25.496	             	  3.420e-001 	
        25.536	  2.990e-001 	             	
        25.560	             	  3.420e-001 	
        25.600	  2.970e-001 	             	
        25.624	             	  3.419e-001 	
        25.664	  2.970e-001 	             	
        25.688	             	  3.419e-001 	
        25.728	  2.970e-001 	             	
        25.752	             	  3.420e-001 	
        25.816	             	  3.420e-001 	
        25.824	  2.960e-001 	             	
        25.888	  2.950e-001 	             	
        25.912	             	  3.419e-001 	
        25.952	  2.960e-001 	             	
        25.976	             	  3.419e-001 	
        26.016	  2.960e-001 	             	
        26.040	             	  3.419e-001 	
        26.080	  2.950e-001 	             	
        26.104	             	  3.418e-001 	
        26.144	  2.950e-001 	             	
        26.168	             	  3.418e-001 	
        26.208	  2.930e-001 	             	
        26.232	             	  3.419e-001 	
        26.272	  2.890e-001 	             	
        26.296	             	  3.419e-001 	
        26.360	             	  3.419e-001 	
        26.425	             	  3.420e-001 	
        26.488	             	  3.420e-001 	
        26.553	             	  3.421e-001 	
        26.560	  2.165e-001 	             	
        26.616	             	  3.420e-001 	
        26.624	  2.169e-001 	             	
        26.688	  2.147e-001 	             	
        26.712	             	  3.420e-001 	
        26.752	  2.166e-001 	             	
        26.776	             	  3.420e-001 	
        26.816	  2.213e-001 	             	
        26.841	             	  3.419e-001 	
        26.880	  2.268e-001 	             	
        26.904	             	  3.418e-001 	
        26.944	  2.385e-001 	             	
        26.968	             	  3.417e-001 	
        27.008	  2.462e-001 	             	
        27.032	             	  3.416e-001 	
        27.072	  2.565e-001 	             	
        27.096	             	  3.416e-001 	
        27.136	  2.624e-001 	             	
        27.160	             	  3.417e-001 	
        27.200	  2.662e-001 	             	
        27.224	             	  3.417e-001 	
        27.264	  2.682e-001 	             	
        27.288	             	  3.418e-001 	
        27.328	  2.712e-001 	             	
        27.352	             	  3.418e-001 	
        27.416	             	  3.418e-001 	
        27.424	  2.726e-001 	             	
        27.488	  2.755e-001 	             	
        27.512	             	  3.418e-001 	
        27.552	  2.783e-001 	             	
        27.576	             	  3.417e-001 	
        27.616	  2.819e-001 	             	
        27.641	             	  3.417e-001 	
        27.680	  2.823e-001 	             	
        27.704	             	  3.417e-001 	
        27.744	  2.824e-001 	             	
        27.768	             	  3.416e-001 	
        27.808	  2.834e-001 	             	
        27.832	             	  3.415e-001 	
        27.872	  2.821e-001 	             	
        27.896	             	  3.415e-001 	
        27.936	  2.815e-001 	             	
        27.960	             	  3.415e-001 	
        28.000	  2.814e-001 	             	
        28.024	             	  3.415e-001 	
        28.064	  2.808e-001 	             	
        28.088	             	  3.416e-001 	
        28.128	  2.786e-001 	             	
        28.152	             	  3.416e-001 	
        28.216	             	  3.417e-001 	
        28.224	  2.786e-001 	             	
        28.288	  2.779e-001 	             	
        28.312	             	  3.417e-001 	
        28.352	  2.790e-001 	             	
        28.376	             	  3.417e-001 	
        28.416	  2.769e-001 	             	
        28.440	             	  3.416e-001 	
        28.479	  2.781e-001 	             	
        28.504	             	  3.416e-001 	
        28.544	  2.771e-001 	             	
        28.568	             	  3.417e-001 	
        28.608	  2.772e-001 	             	
        28.632	             	  3.417e-001 	
        28.672	  2.756e-001 	             	
        28.696	             	  3.416e-001 	
        28.736	  2.757e-001 	             	
        28.760	             	  3.416e-001 	
        28.800	  2.753e-001 	             	
        28.824	             	  3.416e-001 	
        28.864	  2.748e-001 	             	
        28.888	             	  3.415e-001 	
        28.928	  2.739e-001 	             	
        28.952	             	  3.415e-001 	
        29.016	             	  3.415e-001 	
        29.024	  2.730e-001 	             	
        29.088	  2.723e-001 	             	
        29.112	             	  3.416e-001 	
        29.151	  2.717e-001 	             	
        29.176	             	  3.416e-001 	
        29.216	  2.704e-001 	             	
        29.240	             	  3.416e-001 	
        29.280	  2.530e-001 	             	
        29.304	             	  3.415e-001 	
        29.344	  2.364e-001 	             	
        29.368	             	  3.415e-001 	
        29.408	  2.245e-001 	             	
        29.432	             	  3.415e-001 	
        29.472	  2.566e-001 	             	
        29.496	             	  3.415e-001 	
        29.536	  2.589e-001 	             	
        29.560	             	  3.415e-001 	
        29.600	  2.568e-001 	             	
        29.624	             	  3.415e-001 	
        29.663	  2.542e-001 	             	
        29.688	             	  3.416e-001 	
        29.728	  2.510e-001 	             	
        29.752	             	  3.415e-001 	
        29.816	             	  3.415e-001 	
        29.823	  2.421e-001 	             	
        29.888	  2.316e-001 	             	
        29.912	             	  3.415e-001 	
        29.952	  2.137e-001 	             	
        29.976	             	  3.414e-001 	
        30.015	  2.013e-001 	             	
        30.040	             	  3.414e-001 	
        30.079	  1.956e-001 	             	
        30.104	             	  3.415e-001 	
        30.143	  1.989e-001 	             	
        30.168	             	  3.415e-001 	
        30.207	  2.061e-001 	             	
        30.232	             	  3.414e-001 	
        30.272	  2.167e-001 	             	
        30.296	             	  3.413e-001 	
        30.335	  2.335e-001 	             	
        30.360	             	  3.413e-001 	
        30.399	  2.395e-001 	             	
        30.424	             	  3.412e-001 	
        30.463	  2.440e-001 	             	
        30.488	             	  3.411e-001 	
        30.527	  2.465e-001 	             	
        30.552	             	  3.411e-001 	
        30.616	             	  3.411e-001 	
        30.623	  2.491e-001 	             	
        30.687	  2.511e-001 	             	
        30.712	             	  3.411e-001 	
        30.751	  2.529e-001 	             	
        30.776	             	  3.412e-001 	
        30.815	  2.535e-001 	             	
        30.840	             	  3.412e-001 	
        30.879	  2.540e-001 	             	
        30.904	             	  3.412e-001 	
        30.943	  2.540e-001 	             	
        30.968	             	  3.413e-001 	
        31.007	  2.535e-001 	             	
        31.032	             	  3.413e-001 	
        31.071	  2.530e-001 	             	
        31.096	             	  3.413e-001 	
        31.136	  2.539e-001 	             	
        31.160	             	  3.413e-001 	
        31.199	  2.534e-001 	             	
        31.224	             	  3.413e-001 	
        31.263	  2.523e-001 	             	
        31.288	             	  3.413e-001 	
        31.327	  2.529e-001 	             	
        31.352	             	  3.413e-001 	
        31.416	             	  3.413e-001 	
        31.423	  2.508e-001 	             	
        31.487	  2.509e-001 	             	
        31.512	             	  3.412e-001 	
        31.551	  2.505e-001 	             	
        31.576	             	  3.411e-001 	
        31.615	  2.494e-001 	             	
        31.640	             	  3.411e-001 	
        31.679	  2.492e-001 	             	
        31.704	             	  3.410e-001 	
        31.743	  2.488e-001 	             	
        31.768	             	  3.411e-001 	
        31.807	  2.489e-001 	             	
        31.832	             	  3.411e-001 	
        31.871	  2.486e-001 	             	
        31.896	             	  3.412e-001 	
        31.936	  2.484e-001 	             	
        31.960	             	  3.412e-001 	
        31.999	  2.488e-001 	             	
        32.024	             	  3.413e-001 	
        32.063	  2.473e-001 	             	
        32.088	             	  3.414e-001 	
        32.127	  2.472e-001 	             	
        32.152	             	  3.414e-001 	
        32.216	             	  3.415e-001 	
        32.224	  2.461e-001 	             	
        32.288	  2.455e-001 	             	
        32.313	             	  3.414e-001 	
        32.352	  2.464e-001 	             	
        32.377	             	  3.415e-001 	
        32.416	  2.454e-001 	             	
        32.441	             	  3.415e-001 	
        32.480	  2.453e-001 	             	
        32.505	             	  3.414e-001 	
        32.544	  2.450e-001 	             	
        32.569	             	  3.415e-001 	
        32.608	  2.444e-001 	             	
        32.633	             	  3.416e-001 	
        32.672	  2.434e-001 	             	
        32.697	             	  3.417e-001 	
        32.736	  2.446e-001 	             	
        32.761	             	  3.417e-001 	
        32.800	  2.443e-001 	             	
        32.825	             	  3.416e-001 	
        32.864	  2.434e-001 	             	
        32.889	             	  3.416e-001 	
        32.928	  2.435e-001 	             	
        32.953	             	  3.416e-001 	
        33.017	             	  3.416e-001 	
        33.024	  2.434e-001 	             	
        33.088	  2.429e-001 	             	
        33.113	             	  3.416e-001 	
        33.152	  2.427e-001 	             	
        33.177	             	  3.416e-001 	
        33.216	  2.429e-001 	             	
        33.241	             	  3.416e-001 	
        33.280	  2.399e-001 	             	
        33.305	             	  3.416e-001 	
        33.344	  2.411e-001 	             	
        33.369	             	  3.417e-001 	
        33.408	  2.415e-001 	             	
        33.433	             	  3.417e-001 	
        33.472	  2.412e-001 	             	
        33.497	             	  3.416e-001 	
        33.536	  2.412e-001 	             	
        33.561	             	  3.416e-001 	
        33.600	  2.404e-001 	             	
        33.625	             	  3.416e-001 	
        33.664	  2.412e-001 	             	
        33.689	             	  3.416e-001 	
        33.728	  2.396e-001 	             	
        33.753	             	  3.415e-001 	
        33.817	             	  3.415e-001 	
        33.824	  2.392e-001 	             	
        33.888	  2.397e-001 	             	
        33.913	             	  3.415e-001 	
        33.952	  2.388e-001 	             	
        33.977	             	  3.415e-001 	
        34.016	  2.391e-001 	             	
        34.041	             	  3.415e-001 	
        34.080	  2.381e-001 	             	
        34.105	             	  3.415e-001 	
        34.144	  2.374e-001 	             	
        34.169	             	  3.415e-001 	
        34.208	  2.375e-001 	             	
        34.233	             	  3.414e-001 	
        34.272	  2.373e-001 	             	
        34.297	             	  3.414e-001 	
        34.336	  2.367e-001 	             	
        34.361	             	  3.414e-001 	
        34.400	  2.362e-001 	             	
        34.425	             	  3.415e-001 	
        34.464	  2.354e-001 	             	
        34.489	             	  3.415e-001 	
        34.528	  2.360e-001 	             	
        34.553	             	  3.415e-001 	
        34.617	             	  3.416e-001 	
        34.624	  2.341e-001 	             	
        34.688	  2.355e-001 	             	
        34.713	             	  3.416e-001 	
        34.752	  2.338e-001 	             	
        34.777	             	  3.417e-001 	
        34.816	  2.336e-001 	             	
        34.841	             	  3.418e-001 	
        34.880	  2.334e-001 	             	
        34.905	             	  3.418e-001 	
        34.944	  2.334e-001 	             	
        34.969	             	  3.418e-001 	
        35.008	  2.159e-001 	             	
        35.033	             	  3.417e-001 	
        35.072	  1.988e-001 	             	
        35.097	             	  3.417e-001 	
        35.136	  2.114e-001 	             	
        35.161	             	  3.417e-001 	
        35.200	  2.105e-001 	             	
        35.225	             	  3.416e-001 	
        35.264	  2.128e-001 	             	
        35.289	             	  3.416e-001 	
        35.328	  2.024e-001 	             	
        35.353	             	  3.415e-001 	
        35.417	             	  3.415e-001 	
        35.424	  2.239e-001 	             	
        35.488	  2.227e-001 	             	
        35.513	             	  3.415e-001 	
        35.552	  1.286e-001 	             	
        35.577	             	  3.415e-001 	
        35.616	  1.879e-001 	             	
        35.641	             	  3.414e-001 	
        35.680	  1.841e-001 	             	
        35.705	             	  3.414e-001 	
        35.744	  1.830e-001 	             	
        35.769	             	  3.414e-001 	
        35.808	  1.746e-001 	             	
        35.833	             	  3.415e-001 	
        35.872	  2.087e-001 	             	
        35.897	             	  3.415e-001 	
        35.936	  1.964e-001 	             	
        35.961	             	  3.415e-001 	
        36.000	  2.082e-001 	             	
        36.025	             	  3.415e-001 	
        36.064	  1.881e-001 	             	
        36.089	             	  3.415e-001 	
        36.128	  1.957e-001 	             	
        36.153	             	  3.416e-001 	
        36.217	             	  3.416e-001 	
        36.224	  2.071e-001 	             	
        36.288	  1.967e-001 	             	
        36.313	             	  3.417e-001 	
        36.352	  1.773e-001 	             	
        36.377	             	  3.417e-001 	
        36.416	  1.926e-001 	             	
        36.441	             	  3.416e-001 	
        36.480	  1.737e-001 	             	
        36.505	             	  3.416e-001 	
        36.544	  1.696e-001 	             	
        36.569	             	  3.416e-001 	
        36.608	  1.397e-001 	             	
        36.633	             	  3.416e-001 	
        36.672	  1.170e-001 	             	
        36.697	             	  3.416e-001 	
        36.736	  1.470e-001 	             	
        36.761	             	  3.416e-001 	
        36.800	  3.920e-002 	             	
        36.825	             	  3.416e-001 	
        36.864	  9.990e-002 	             	
        36.889	             	  3.417e-001 	
        36.928	  1.748e-001 	             	
        36.953	             	  3.416e-001 	
        37.017	             	  3.417e-001 	
        37.024	  1.723e-001 	             	
        37.088	  1.940e-001 	             	
        37.113	             	  3.417e-001 	
        37.152	  1.788e-001 	             	
        37.177	             	  3.417e-001 	
        37.216	  1.882e-001 	             	
        37.241	             	  3.418e-001 	
        37.280	  1.818e-001 	             	
        37.305	             	  3.418e-001 	
        37.344	  1.308e-001 	             	
        37.369	             	  3.418e-001 	
        37.408	  1.406e-001 	             	
        37.433	             	  3.418e-001 	
        37.472	  1.503e-001 	             	
        37.497	             	  3.418e-001 	
        37.536	  1.469e-001 	             	
        37.561	             	  3.418e-001 	
        37.600	  1.492e-001 	             	
        37.625	             	  3.418e-001 	
        37.664	  1.854e-001 	             	
        37.689	             	  3.418e-001 	
        37.728	  2.010e-001 	             	
        37.753	             	  3.418e-001 	
        37.817	             	  3.417e-001 	
        37.824	  1.570e-001 	             	
        37.881	             	  3.417e-001 	
        37.888	  8.150e-002 	             	
        37.952	  8.780e-002 	             	
        37.977	             	  3.416e-001 	
        38.016	  1.147e-001 	             	
        38.041	             	  3.416e-001 	
        38.080	  1.013e-001 	             	
        38.105	             	  3.415e-001 	
        38.144	  5.640e-002 	             	
        38.169	             	  3.415e-001 	
        38.208	  1.205e-001 	             	
        38.233	             	  3.415e-001 	
        38.272	  8.830e-002 	             	
        38.297	             	  3.415e-001 	
        38.336	  7.070e-002 	             	
        38.361	             	  3.415e-001 	
        38.400	  4.740e-002 	             	
        38.425	             	  3.416e-001 	
        38.464	  8.900e-002 	             	
        38.489	             	  3.416e-001 	
        38.528	  1.536e-001 	             	
        38.553	             	  3.416e-001 	
        38.617	             	  3.416e-001 	
        38.624	  7.510e-002 	             	
        38.681	             	  3.415e-001 	
        38.688	  5.320e-002 	             	
        38.752	  9.690e-002 	             	
        38.777	             	  3.414e-001 	
        38.816	  1.330e-001 	             	
        38.841	             	  3.413e-001 	
        38.880	  1.729e-001 	             	
        38.905	             	  3.413e-001 	
        38.944	  1.694e-001 	             	
        38.969	             	  3.413e-001 	
        39.008	  1.687e-001 	             	
        39.033	             	  3.413e-001 	
        39.072	  1.351e-001 	             	
        39.097	             	  3.413e-001 	
        39.136	  7.860e-002 	             	
        39.161	             	  3.413e-001 	
        39.200	  1.960e-001 	             	
        39.225	             	  3.413e-001 	
        39.264	  1.997e-001 	             	
        39.289	             	  3.414e-001 	
        39.328	  1.635e-001 	             	
        39.353	             	  3.414e-001 	
        39.392	  1.368e-001 	             	
        39.417	             	  3.414e-001 	
        39.481	             	  3.414e-001 	
        39.488	  1.339e-001 	             	
        39.552	  1.397e-001 	             	
        39.577	             	  3.414e-001 	
        39.616	  1.560e-001 	             	
        39.641	             	  3.414e-001 	
        39.680	  1.789e-001 	             	
        39.705	             	  3.413e-001 	
        39.744	  1.994e-001 	             	
        39.769	             	  3.413e-001 	
        39.808	  2.017e-001 	             	
        39.833	             	  3.413e-001 	
        39.872	  1.989e-001 	             	
        39.897	             	  3.413e-001 	
        39.936	  2.016e-001 	             	
        39.961	             	  3.413e-001 	
        40.000	  2.015e-001 	             	
        40.025	             	  3.413e-001 	
        40.064	  2.038e-001 	             	
        40.089	             	  3.413e-001 	
        40.128	  2.024e-001 	             	
        40.153	             	  3.412e-001 	
        40.192	  2.041e-001 	             	
        40.217	             	  3.412e-001 	
        40.281	             	  3.412e-001 	
        40.288	  2.043e-001 	             	
        40.352	  2.035e-001 	             	
        40.377	             	  3.413e-001 	
        40.416	  2.049e-001 	             	
        40.441	             	  3.414e-001 	
        40.480	  2.039e-001 	             	
        40.505	             	  3.414e-001 	
        40.544	  2.050e-001 	             	
        40.569	             	  3.414e-001 	
        40.608	  2.035e-001 	             	
        40.633	             	  3.415e-001 	
        40.672	  2.052e-001 	             	
        40.697	             	  3.415e-001 	
        40.736	  2.048e-001 	             	
        40.761	             	  3.415e-001 	
        40.800	  2.042e-001 	             	
        40.825	             	  3.414e-001 	
        40.864	  2.042e-001 	             	
        40.889	             	  3.414e-001 	
        40.928	  2.048e-001 	             	
        40.953	             	  3.415e-001 	
        40.992	  2.052e-001 	             	
        41.017	             	  3.415e-001 	
        41.081	             	  3.415e-001 	
        41.088	  2.044e-001 	             	
        41.152	  2.041e-001 	             	
        41.177	             	  3.415e-001 	
        41.216	  2.059e-001 	             	
        41.241	             	  3.414e-001 	
        41.280	  2.052e-001 	             	
        41.305	             	  3.413e-001 	
        41.344	  2.045e-001 	             	
        41.369	             	  3.413e-001 	
        41.408	  2.046e-001 	             	
        41.433	             	  3.412e-001 	
        41.472	  2.043e-001 	             	
        41.497	             	  3.412e-001 	
        41.536	  2.049e-001 	             	
        41.561	             	  3.411e-001 	
        41.600	  2.042e-001 	             	
        41.625	             	  3.411e-001 	
        41.664	  2.049e-001 	             	
        41.689	             	  3.411e-001 	
        41.728	  2.056e-001 	             	
        41.753	             	  3.412e-001 	
        41.792	  2.053e-001 	             	
        41.817	             	  3.412e-001 	
        41.881	             	  3.413e-001 	
        41.888	  2.054e-001 	             	
        41.952	  2.057e-001 	             	
        41.976	             	  3.413e-001 	
        42.016	  2.047e-001 	             	
        42.041	             	  3.413e-001 	
        42.080	  2.066e-001 	             	
        42.105	             	  3.414e-001 	
        42.144	  2.049e-001 	             	
        42.169	             	  3.414e-001 	
        42.208	  2.062e-001 	             	
        42.233	             	  3.414e-001 	
        42.272	  2.052e-001 	             	
        42.297	             	  3.414e-001 	
        42.336	  2.056e-001 	             	
        42.361	             	  3.414e-001 	
        42.400	  2.057e-001 	             	
        42.425	             	  3.413e-001 	
        42.464	  2.046e-001 	             	
        42.489	             	  3.413e-001 	
        42.528	  2.057e-001 	             	
        42.553	             	  3.413e-001 	
        42.592	  2.049e-001 	             	
        42.616	             	  3.413e-001 	
        42.680	             	  3.413e-001 	
        42.688	  2.058e-001 	             	
        42.752	  2.061e-001 	             	
        42.777	             	  3.413e-001 	
        42.816	  2.061e-001 	             	
        42.841	             	  3.413e-001 	
        42.880	  2.062e-001 	             	
        42.905	             	  3.413e-001 	
        42.944	  2.069e-001 	             	
        42.969	             	  3.413e-001 	
        43.008	  2.067e-001 	             	
        43.032	             	  3.413e-001 	
        43.072	  2.066e-001 	             	
        43.097	             	  3.414e-001 	
        43.136	  2.071e-001 	             	
        43.160	             	  3.414e-001 	
        43.200	  2.062e-001 	             	
        43.224	             	  3.415e-001 	
        43.264	  2.062e-001 	             	
        43.289	             	  3.415e-001 	
        43.328	  2.060e-001 	             	
        43.352	             	  3.416e-001 	
        43.392	  2.054e-001 	             	
        43.416	             	  3.417e-001 	
        43.480	             	  3.417e-001 	
        43.488	  2.061e-001 	             	
        43.552	  2.062e-001 	             	
        43.577	             	  3.417e-001 	
        43.616	  2.058e-001 	             	
        43.640	             	  3.417e-001 	
        43.680	  2.061e-001 	             	
        43.704	             	  3.417e-001 	
        43.744	  2.065e-001 	             	
        43.768	             	  3.417e-001 	
        43.808	  2.064e-001 	             	
        43.832	             	  3.417e-001 	
        43.872	  2.063e-001 	             	
        43.896	             	  3.417e-001 	
        43.936	  2.065e-001 	             	
        43.960	             	  3.417e-001 	
        44.000	  2.071e-001 	             	
        44.024	             	  3.418e-001 	
        44.064	  2.072e-001 	             	
        44.088	             	  3.419e-001 	
        44.128	  2.064e-001 	             	
        44.152	             	  3.418e-001 	
        44.192	  2.069e-001 	             	
        44.216	             	  3.418e-001 	
        44.280	             	  3.417e-001 	
        44.288	  2.073e-001 	             	
        44.352	  2.080e-001 	             	
        44.376	             	  3.417e-001 	
        44.416	  2.085e-001 	             	
        44.440	             	  3.417e-001 	
        44.480	  2.073e-001 	             	
        44.504	             	  3.418e-001 	
        44.544	  2.082e-001 	             	
        44.568	             	  3.418e-001 	
        44.608	  2.089e-001 	             	
        44.633	             	  3.418e-001 	
        44.672	  2.089e-001 	             	
        44.696	             	  3.418e-001 	
        44.736	  2.100e-001 	             	
        44.760	             	  3.419e-001 	
        44.800	  2.102e-001 	             	
        44.824	             	  3.419e-001 	
        44.864	  2.108e-001 	             	
        44.889	             	  3.418e-001 	
        44.928	  2.106e-001 	             	
        44.952	             	  3.418e-001 	
        44.992	  2.099e-001 	             	
        45.016	             	  3.417e-001 	
        45.080	             	  3.417e-001 	
        45.088	  2.092e-001 	             	
        45.152	  2.098e-001 	             	
        45.176	             	  3.418e-001 	
        45.216	  2.111e-001 	             	
        45.240	             	  3.419e-001 	
        45.280	  2.108e-001 	             	
        45.304	             	  3.420e-001 	
        45.344	  2.106e-001 	             	
        45.368	             	  3.421e-001 	
        45.408	  2.111e-001 	             	
        45.432	             	  3.421e-001 	
        45.472	  2.116e-001 	             	
        45.496	             	  3.420e-001 	
        45.536	  2.119e-001 	             	
        45.560	             	  3.420e-001 	
        45.600	  2.120e-001 	             	
        45.624	             	  3.420e-001 	
        45.664	  2.121e-001 	             	
        45.688	             	  3.420e-001 	
        45.728	  2.120e-001 	             	
        45.752	             	  3.421e-001 	
        45.792	  2.112e-001 	             	
        45.816	             	  3.422e-001 	
        45.880	             	  3.422e-001 	
        45.888	  2.114e-001 	             	
        45.952	  2.126e-001 	             	
        45.976	             	  3.421e-001 	
        46.016	  2.133e-001 	             	
        46.040	             	  3.422e-001 	
        46.080	  2.126e-001 	             	
        46.104	             	  3.422e-001 	
        46.144	  2.135e-001 	             	
        46.168	             	  3.422e-001 	
        46.208	  2.127e-001 	             	
        46.232	             	  3.423e-001 	
        46.272	  2.133e-001 	             	
        46.296	             	  3.422e-001 	
        46.336	  2.142e-001 	             	
        46.360	             	  3.421e-001 	
        46.399	  2.135e-001 	             	
        46.424	             	  3.421e-001 	
        46.464	  2.146e-001 	             	
        46.488	             	  3.421e-001 	
        46.528	  2.140e-001 	             	
        46.552	             	  3.420e-001 	
        46.592	  2.146e-001 	             	
        46.616	             	  3.419e-001 	
        46.680	             	  3.419e-001 	
        46.688	  2.148e-001 	             	
        46.752	  2.147e-001 	             	
        46.776	             	  3.418e-001 	
        46.815	  2.159e-001 	             	
        46.840	             	  3.418e-001 	
        46.880	  2.150e-001 	             	
        46.904	             	  3.418e-001 	
        46.943	  2.143e-001 	             	
        46.968	             	  3.418e-001 	
        47.008	  2.147e-001 	             	
        47.032	             	  3.419e-001 	
        47.071	  2.156e-001 	             	
        47.096	             	  3.419e-001 	
        47.135	  2.166e-001 	             	
        47.160	             	  3.419e-001 	
        47.200	  2.154e-001 	             	
        47.224	             	  3.419e-001 	
        47.263	  2.161e-001 	             	
        47.288	             	  3.419e-001 	
        47.328	  2.163e-001 	             	
        47.352	             	  3.420e-001 	
        47.391	  2.159e-001 	             	
        47.416	             	  3.420e-001 	
        47.480	             	  3.420e-001 	
        47.488	  2.164e-001 	             	
        47.552	  2.170e-001 	             	
        47.576	             	  3.420e-001 	
        47.616	  2.172e-001 	             	
        47.641	             	  3.420e-001 	
        47.679	  2.164e-001 	             	
        47.704	             	  3.420e-001 	
        47.743	  2.165e-001 	             	
        47.768	             	  3.419e-001 	
        47.807	  2.174e-001 	             	
        47.832	             	  3.419e-001 	
        47.871	  2.169e-001 	             	
        47.896	             	  3.419e-001 	
        47.936	  2.174e-001 	             	
        47.960	             	  3.419e-001 	
        47.999	  2.173e-001 	             	
        48.024	             	  3.419e-001 	
        48.064	  2.183e-001 	             	
        48.088	             	  3.420e-001 	
        48.127	  2.172e-001 	             	
        48.152	             	  3.420e-001 	
        48.192	  2.160e-001 	             	
        48.216	             	  3.421e-001 	
        48.280	             	  3.421e-001 	
        48.287	  2.155e-001 	             	
        48.351	  1.371e-001 	             	
        48.376	             	  3.421e-001 	
        48.415	  1.322e-001 	             	
        48.440	             	  3.421e-001 	
        48.479	  1.428e-001 	             	
        48.504	             	  3.421e-001 	
        48.543	  1.291e-001 	             	
        48.568	             	  3.420e-001 	
        48.607	  1.395e-001 	             	
        48.632	             	  3.419e-001 	
        48.671	  1.651e-001 	             	
        48.696	             	  3.419e-001 	
        48.735	  1.849e-001 	             	
        48.760	             	  3.419e-001 	
        48.799	  1.901e-001 	             	
        48.824	             	  3.420e-001 	
        48.863	  1.933e-001 	             	
        48.888	             	  3.420e-001 	
        48.927	  1.951e-001 	             	
        48.952	             	  3.420e-001 	
        48.991	  1.992e-001 	             	
        49.016	             	  3.421e-001 	
        49.080	             	  3.420e-001 	
        49.087	  2.011e-001 	             	
        49.151	  2.032e-001 	             	
        49.176	             	  3.420e-001 	
        49.215	  2.051e-001 	             	
        49.240	             	  3.420e-001 	
        49.279	  2.061e-001 	             	
        49.304	             	  3.420e-001 	
        49.343	  2.083e-001 	             	
        49.368	             	  3.420e-001 	
        49.407	  2.094e-001 	             	
        49.432	             	  3.420e-001 	
        49.471	  2.119e-001 	             	
        49.496	             	  3.420e-001 	
        49.535	  2.139e-001 	             	
        49.560	             	  3.421e-001 	
        49.599	  2.171e-001 	             	
        49.624	             	  3.421e-001 	
        49.663	  2.187e-001 	             	
        49.688	             	  3.422e-001 	
        49.728	  2.202e-001 	             	
        49.753	             	  3.422e-001 	
        49.792	  2.216e-001 	             	
        49.817	             	  3.422e-001 	
        49.881	             	  3.422e-001 	
        49.888	  2.226e-001 	             	
        49.952	  2.231e-001 	             	
        49.977	             	  3.422e-001 	
        50.016	  2.228e-001 	             	
        50.041	             	  3.423e-001 	
        50.080	  2.234e-001 	             	
        50.105	             	  3.423e-001 	
        50.144	  2.233e-001 	             	
        50.169	             	  3.422e-001 	
        50.208	  2.241e-001 	             	
        50.233	             	  3.422e-001 	
        50.272	  2.238e-001 	             	
        50.297	             	  3.421e-001 	
        50.336	  2.240e-001 	             	
        50.361	             	  3.421e-001 	
        50.400	  2.243e-001 	             	
        50.425	             	  3.420e-001 	
        50.464	  2.257e-001 	             	
        50.489	             	  3.420e-001 	
        50.528	  2.245e-001 	             	
        50.553	             	  3.421e-001 	
        50.592	  2.243e-001 	             	
        50.617	             	  3.421e-001 	
        50.681	             	  3.422e-001 	
        50.688	  2.245e-001 	             	
        50.745	             	  3.422e-001 	
        50.752	  2.248e-001 	             	
        50.816	  2.250e-001 	             	
        50.841	             	  3.422e-001 	
        50.880	  2.263e-001 	             	
        50.905	             	  3.422e-001 	
        50.944	  2.267e-001 	             	
        50.969	             	  3.423e-001 	
        51.008	  2.259e-001 	             	
        51.033	             	  3.423e-001 	
        51.072	  2.260e-001 	             	
        51.097	             	  3.423e-001 	
        51.136	  2.265e-001 	             	
        51.161	             	  3.423e-001 	
        51.200	  2.265e-001 	             	
        51.225	             	  3.424e-001 	
        51.264	  2.267e-001 	             	
        51.289	             	  3.424e-001 	
        51.328	  2.265e-001 	             	
        51.353	             	  3.424e-001 	
        51.392	  2.280e-001 	             	
        51.417	             	  3.423e-001 	
        51.481	             	  3.422e-001 	
        51.488	  2.268e-001 	             	
        51.545	             	  3.422e-001 	
        51.552	  2.274e-001 	             	
        51.616	  2.274e-001 	             	
        51.641	             	  3.421e-001 	
        51.680	  2.282e-001 	             	
        51.705	             	  3.420e-001 	
        51.744	  2.274e-001 	             	
        51.769	             	  3.420e-001 	
        51.808	  2.277e-001 	             	
        51.833	             	  3.421e-001 	
        51.873	  2.280e-001 	             	
        51.897	             	  3.421e-001 	
        51.936	  2.286e-001 	             	
        51.961	             	  3.422e-001 	
        52.000	  2.292e-001 	             	
        52.025	             	  3.422e-001 	
        52.064	  2.285e-001 	             	
        52.089	             	  3.422e-001 	
        52.128	  2.289e-001 	             	
        52.153	             	  3.423e-001 	
        52.192	  2.284e-001 	             	
        52.217	             	  3.423e-001 	
        52.256	  2.286e-001 	             	
        52.281	             	  3.423e-001 	
        52.345	             	  3.423e-001 	
        52.352	  2.282e-001 	             	
        52.416	  2.289e-001 	             	
        52.441	             	  3.424e-001 	
        52.480	  2.288e-001 	             	
        52.505	             	  3.424e-001 	
        52.544	  2.280e-001 	             	
        52.569	             	  3.425e-001 	
        52.608	  2.289e-001 	             	
        52.633	             	  3.425e-001 	
        52.672	  2.297e-001 	             	
        52.697	             	  3.425e-001 	
        52.736	  2.292e-001 	             	
        52.761	             	  3.424e-001 	
        52.800	  2.287e-001 	             	
        52.825	             	  3.424e-001 	
        52.864	  2.292e-001 	             	
        52.889	             	  3.423e-001 	
        52.928	  2.295e-001 	             	
        52.953	             	  3.423e-001 	
        52.992	  2.293e-001 	             	
        53.017	             	  3.422e-001 	
        53.056	  2.293e-001 	             	
        53.081	             	  3.423e-001 	
        53.145	             	  3.423e-001 	
        53.152	  2.299e-001 	             	
        53.216	  2.295e-001 	             	
        53.241	             	  3.423e-001 	
        53.280	  2.298e-001 	             	
        53.305	             	  3.422e-001 	
        53.344	  2.304e-001 	             	
        53.369	             	  3.421e-001 	
        53.408	  2.315e-001 	             	
        53.433	             	  3.421e-001 	
        53.472	  2.305e-001 	             	
        53.497	             	  3.421e-001 	
        53.536	  2.310e-001 	             	
        53.561	             	  3.420e-001 	
        53.600	  2.310e-001 	             	
        53.625	             	  3.420e-001 	
        53.664	  2.315e-001 	             	
        53.689	             	  3.420e-001 	
        53.728	  2.303e-001 	             	
        53.753	             	  3.420e-001 	
        53.792	  2.310e-001 	             	
        53.817	             	  3.421e-001 	
        53.856	  2.305e-001 	             	
        53.881	             	  3.421e-001 	
        53.945	             	  3.421e-001 	
        53.952	  2.316e-001 	             	
        54.016	  2.305e-001 	             	
        54.041	             	  3.422e-001 	
        54.080	  2.316e-001 	             	
        54.105	             	  3.422e-001 	
        54.144	  2.311e-001 	             	
        54.169	             	  3.422e-001 	
        54.208	  2.306e-001 	             	
        54.233	             	  3.423e-001 	
        54.272	  2.305e-001 	             	
        54.297	             	  3.422e-001 	
        54.336	  2.313e-001 	             	
        54.361	             	  3.422e-001 	
        54.400	  2.316e-001 	             	
        54.425	             	  3.422e-001 	
        54.464	  2.309e-001 	             	
        54.489	             	  3.422e-001 	
        54.528	  2.303e-001 	             	
        54.553	             	  3.421e-001 	
        54.592	  2.317e-001 	             	
        54.617	             	  3.421e-001 	
        54.656	  2.310e-001 	             	
        54.681	             	  3.420e-001 	
        54.745	             	  3.420e-001 	
        54.752	  2.311e-001 	             	
        54.816	  2.314e-001 	             	
        54.841	             	  3.419e-001 	
        54.880	  2.326e-001 	             	
        54.905	             	  3.419e-001 	
        54.944	  2.313e-001 	             	
        54.969	             	  3.419e-001 	
        55.008	  2.324e-001 	             	
        55.033	             	  3.419e-001 	
        55.072	  2.325e-001 	             	
        55.097	             	  3.419e-001 	
        55.136	  2.324e-001 	             	
        55.161	             	  3.419e-001 	
        55.200	  2.329e-001 	             	
        55.225	             	  3.420e-001 	
        55.264	  2.336e-001 	             	
        55.289	             	  3.421e-001 	
        55.328	  2.324e-001 	             	
        55.353	             	  3.422e-001 	
        55.392	  2.342e-001 	             	
        55.417	             	  3.423e-001 	
        55.456	  2.342e-001 	             	
        55.481	             	  3.422e-001 	
        55.545	             	  3.422e-001 	
        55.552	  2.343e-001 	             	
        55.616	  2.337e-001 	             	
        55.641	             	  3.422e-001 	
        55.680	  2.336e-001 	             	
        55.705	             	  3.422e-001 	
        55.744	  2.344e-001 	             	
        55.769	             	  3.421e-001 	
        55.808	  2.352e-001 	             	
        55.833	             	  3.421e-001 	
        55.872	  2.348e-001 	             	
        55.897	             	  3.421e-001 	
        55.936	  2.338e-001 	             	
        55.961	             	  3.421e-001 	
        56.000	  2.341e-001 	             	
        56.025	             	  3.421e-001 	
        56.064	  2.341e-001 	             	
        56.089	             	  3.421e-001 	
        56.128	  2.340e-001 	             	
        56.153	             	  3.422e-001 	
        56.192	  2.344e-001 	             	
        56.217	             	  3.421e-001 	
        56.256	  2.346e-001 	             	
        56.281	             	  3.421e-001 	
        56.345	             	  3.421e-001 	
        56.352	  2.343e-001 	             	
        56.416	  2.345e-001 	             	
        56.441	             	  3.421e-001 	
        56.480	  2.342e-001 	             	
        56.505	             	  3.421e-001 	
        56.544	  2.347e-001 	             	
        56.569	             	  3.420e-001 	
        56.608	  2.336e-001 	             	
        56.633	             	  3.420e-001 	
        56.672	  2.340e-001 	             	
        56.697	             	  3.420e-001 	
        56.736	  2.348e-001 	             	
        56.761	             	  3.420e-001 	
        56.800	  2.341e-001 	             	
        56.825	             	  3.420e-001 	
        56.864	  2.338e-001 	             	
        56.889	             	  3.420e-001 	
        56.928	  2.344e-001 	             	
        56.953	             	  3.420e-001 	
        56.992	  2.339e-001 	             	
        57.017	             	  3.420e-001 	
        57.056	  2.343e-001 	             	
        57.081	             	  3.420e-001 	
        57.145	             	  3.420e-001 	
        57.152	  2.349e-001 	             	
        57.216	  2.343e-001 	             	
        57.241	             	  3.420e-001 	
        57.280	  2.344e-001 	             	
        57.305	             	  3.420e-001 	
        57.344	  2.346e-001 	             	
        57.369	             	  3.421e-001 	
        57.408	  2.341e-001 	             	
        57.433	             	  3.421e-001 	
        57.472	  2.324e-001 	             	
        57.497	             	  3.422e-001 	
        57.536	  2.337e-001 	             	
        57.561	             	  3.422e-001 	
        57.600	  2.340e-001 	             	
        57.625	             	  3.421e-001 	
        57.664	  2.343e-001 	             	
        57.689	             	  3.421e-001 	
        57.728	  2.338e-001 	             	
        57.753	             	  3.420e-001 	
        57.792	  2.346e-001 	             	
        57.817	             	  3.420e-001 	
        57.856	  2.340e-001 	             	
        57.881	             	  3.420e-001 	
        57.945	             	  3.420e-001 	
        57.952	  2.337e-001 	             	
        58.016	  2.351e-001 	             	
        58.041	             	  3.420e-001 	
        58.080	  2.349e-001 	             	
        58.105	             	  3.419e-001 	
        58.144	  2.344e-001 	             	
        58.169	             	  3.420e-001 	
        58.208	  2.345e-001 	             	
        58.233	             	  3.420e-001 	
        58.272	  2.348e-001 	             	
        58.297	             	  3.420e-001 	
        58.336	  2.344e-001 	             	
        58.361	             	  3.420e-001 	
        58.400	  2.344e-001 	             	
        58.425	             	  3.420e-001 	
        58.464	  2.359e-001 	             	
        58.489	             	  3.420e-001 	
        58.528	  2.342e-001 	             	
        58.553	             	  3.419e-001 	
        58.592	  2.351e-001 	             	
        58.617	             	  3.419e-001 	
        58.656	  2.358e-001 	             	
        58.681	             	  3.419e-001 	
        58.745	             	  3.418e-001 	
        58.752	  2.358e-001 	             	
        58.816	  2.358e-001 	             	
        58.841	             	  3.419e-001 	
        58.880	  2.358e-001 	             	
        58.905	             	  3.419e-001 	
        58.944	  2.359e-001 	             	
        58.969	             	  3.420e-001 	
        59.008	  2.361e-001 	             	
        59.033	             	  3.420e-001 	
        59.072	  2.368e-001 	             	
        59.097	             	  3.420e-001 	
        59.136	  2.360e-001 	             	
        59.161	             	  3.420e-001 	
        59.200	  2.360e-001 	             	
        59.225	             	  3.422e-001 	
        59.264	  2.365e-001 	             	
        59.289	             	  3.422e-001 	
        59.328	  2.360e-001 	             	
        59.353	             	  3.422e-001 	
        59.392	  2.365e-001 	             	
        59.417	             	  3.422e-001 	
        59.456	  2.357e-001 	             	
        59.481	             	  3.422e-001 	
        59.545	             	  3.422e-001 	
        59.552	  2.363e-001 	             	
        59.616	  2.373e-001 	             	
        59.641	             	  3.422e-001 	
        59.680	  2.376e-001 	             	
        59.705	             	  3.421e-001 	
        59.744	  2.374e-001 	             	
        59.769	             	  3.421e-001 	
        59.808	  2.375e-001 	             	
        59.832	             	  3.421e-001 	
        59.872	  2.366e-001 	             	
        59.897	             	  3.421e-001 	
        59.936	  2.375e-001 	             	
        59.961	             	  3.421e-001 	
        60.000	  2.370e-001 	             	
        60.025	             	  3.421e-001 	
        60.064	  2.373e-001 	             	
        60.089	             	  3.421e-001 	
        60.128	  2.375e-001 	             	
        60.152	             	  3.422e-001 	
        60.192	  2.379e-001 	             	
        60.217	             	  3.422e-001 	
        60.256	  2.362e-001 	             	
        60.281	             	  3.421e-001 	
        60.344	             	  3.421e-001 	
        60.352	  2.370e-001 	             	
        60.416	  2.391e-001 	             	
        60.440	             	  3.421e-001 	
        60.480	  2.386e-001 	             	
        60.505	             	  3.420e-001 	
        60.544	  2.376e-001 	             	
        60.569	             	  3.421e-001 	
        60.608	  2.387e-001 	             	
        60.633	             	  3.421e-001 	
        60.672	  2.387e-001 	             	
        60.696	             	  3.421e-001 	
        60.736	  2.377e-001 	             	
        60.760	             	  3.421e-001 	
        60.800	  2.386e-001 	             	
        60.824	             	  3.422e-001 	
        60.864	  2.380e-001 	             	
        60.888	             	  3.422e-001 	
        60.928	  2.386e-001 	             	
        60.953	             	  3.423e-001 	
        60.992	  2.388e-001 	             	
        61.016	             	  3.423e-001 	
        61.056	  2.375e-001 	             	
        61.081	             	  3.423e-001 	
        61.144	             	  3.422e-001 	
        61.152	  2.392e-001 	             	
        61.216	  2.395e-001 	             	
        61.240	             	  3.421e-001 	
        61.280	  2.395e-001 	             	
        61.304	             	  3.420e-001 	
        61.344	  2.384e-001 	             	
        61.368	             	  3.420e-001 	
        61.408	  2.391e-001 	             	
        61.432	             	  3.420e-001 	
        61.472	  2.393e-001 	             	
        61.497	             	  3.420e-001 	
        61.536	  2.396e-001 	             	
        61.560	             	  3.420e-001 	
        61.600	  2.393e-001 	             	
        61.624	             	  3.420e-001 	
        61.664	  2.388e-001 	             	
        61.688	             	  3.420e-001 	
        61.728	  2.387e-001 	             	
        61.752	             	  3.420e-001 	
        61.792	  2.386e-001 	             	
        61.816	             	  3.420e-001 	
        61.856	  2.385e-001 	             	
        61.880	             	  3.421e-001 	
        61.944	             	  3.421e-001 	
        61.952	  2.400e-001 	             	
        62.016	  2.392e-001 	             	
        62.040	             	  3.421e-001 	
        62.080	  2.393e-001 	             	
        62.104	             	  3.422e-001 	
        62.144	  2.392e-001 	             	
        62.168	             	  3.422e-001 	
        62.208	  2.386e-001 	             	
        62.232	             	  3.423e-001 	
        62.272	  2.393e-001 	             	
        62.296	             	  3.423e-001 	
        62.336	  2.394e-001 	             	
        62.361	             	  3.423e-001 	
        62.400	  2.397e-001 	             	
        62.424	             	  3.423e-001 	
        62.464	  2.391e-001 	             	
        62.488	             	  3.422e-001 	
        62.528	  2.388e-001 	             	
        62.552	             	  3.422e-001 	
        62.592	  2.394e-001 	             	
        62.616	             	  3.421e-001 	
        62.656	  2.390e-001 	             	
        62.680	             	  3.421e-001 	
        62.744	             	  3.421e-001 	
        62.752	  2.404e-001 	             	
        62.816	  2.390e-001 	             	
        62.840	             	  3.422e-001 	
        62.880	  2.398e-001 	             	
        62.904	             	  3.423e-001 	
        62.944	  2.392e-001 	             	
        62.968	             	  3.423e-001 	
        63.008	  2.402e-001 	             	
        63.032	             	  3.423e-001 	
        63.072	  2.395e-001 	             	
        63.096	             	  3.423e-001 	
        63.136	  2.392e-001 	             	
        63.160	             	  3.424e-001 	
        63.200	  2.403e-001 	             	
        63.224	             	  3.424e-001 	
        63.264	  2.400e-001 	             	
        63.288	             	  3.423e-001 	
        63.328	  2.390e-001 	             	
        63.352	             	  3.422e-001 	
        63.392	  2.391e-001 	             	
        63.416	             	  3.422e-001 	
        63.456	  2.401e-001 	             	
        63.480	             	  3.422e-001 	
        63.544	             	  3.423e-001 	
        63.552	  2.406e-001 	             	
        63.608	             	  3.424e-001 	
        63.616	  2.404e-001 	             	
        63.680	  2.407e-001 	             	
        63.704	             	  3.425e-001 	
        63.744	  2.418e-001 	             	
        63.768	             	  3.426e-001 	
        63.808	  2.421e-001 	             	
        63.832	             	  3.426e-001 	
        63.872	  2.412e-001 	             	
        63.896	             	  3.427e-001 	
        63.935	  2.415e-001 	             	
        63.960	             	  3.427e-001 	
        64.000	  2.419e-001 	             	
        64.024	             	  3.426e-001 	
        64.064	  2.428e-001 	             	
        64.088	             	  3.425e-001 	
        64.127	  2.420e-001 	             	
        64.152	             	  3.424e-001 	
        64.192	  2.420e-001 	             	
        64.216	             	  3.424e-001 	
        64.255	  2.424e-001 	             	
        64.280	             	  3.424e-001 	
        64.344	             	  3.424e-001 	
        64.352	  2.427e-001 	             	
        64.416	  2.428e-001 	             	
        64.440	             	  3.423e-001 	
        64.480	  2.426e-001 	             	
        64.504	             	  3.423e-001 	
        64.543	  2.428e-001 	             	
        64.568	             	  3.423e-001 	
        64.608	  2.430e-001 	             	
        64.632	             	  3.423e-001 	
        64.672	  2.439e-001 	             	
        64.696	             	  3.423e-001 	
        64.735	  2.427e-001 	             	
        64.760	             	  3.424e-001 	
        64.800	  2.429e-001 	             	
        64.824	             	  3.425e-001 	
        64.863	  2.424e-001 	             	
        64.888	             	  3.424e-001 	
        64.928	  2.435e-001 	             	
        64.952	             	  3.425e-001 	
        64.992	  2.426e-001 	             	
        65.016	             	  3.425e-001 	
        65.055	  2.433e-001 	             	
        65.080	             	  3.425e-001 	
        65.119	  2.426e-001 	             	
        65.144	             	  3.425e-001 	
        65.208	             	  3.425e-001 	
        65.215	  2.424e-001 	             	
        65.279	  2.427e-001 	             	
        65.304	             	  3.425e-001 	
        65.343	  2.433e-001 	             	
        65.368	             	  3.426e-001 	
        65.407	  2.432e-001 	             	
        65.432	             	  3.427e-001 	
        65.471	  2.440e-001 	             	
        65.496	             	  3.427e-001 	
        65.535	  2.431e-001 	             	
        65.560	             	  3.427e-001 	
        65.599	  2.441e-001 	             	
        65.624	             	  3.428e-001 	
        65.664	  2.443e-001 	             	
        65.688	             	  3.428e-001 	
        65.727	  2.439e-001 	             	
        65.752	             	  3.428e-001 	
        65.792	  2.432e-001 	             	
        65.816	             	  3.428e-001 	
        65.855	  2.443e-001 	             	
        65.880	             	  3.428e-001 	
        65.919	  2.443e-001 	             	
        65.944	             	  3.428e-001 	
        66.008	             	  3.427e-001 	
        66.015	  2.427e-001 	             	
        66.079	  2.436e-001 	             	
        66.104	             	  3.427e-001 	
        66.143	  2.444e-001 	             	
        66.168	             	  3.427e-001 	
        66.207	  2.449e-001 	             	
        66.232	             	  3.427e-001 	
        66.271	  2.440e-001 	             	
        66.296	             	  3.427e-001 	
        66.335	  2.440e-001 	             	
        66.360	             	  3.429e-001 	
        66.400	  2.440e-001 	             	
        66.424	             	  3.429e-001 	
        66.463	  2.441e-001 	             	
        66.488	             	  3.429e-001 	
        66.527	  2.445e-001 	             	
        66.552	             	  3.429e-001 	
        66.591	  2.434e-001 	             	
        66.616	             	  3.429e-001 	
        66.655	  2.433e-001 	             	
        66.680	             	  3.428e-001 	
        66.719	  2.448e-001 	             	
        66.744	             	  3.428e-001 	
        66.808	             	  3.427e-001 	
        66.815	  2.440e-001 	             	
        66.879	  2.437e-001 	             	
        66.904	             	  3.428e-001 	
        66.943	  2.438e-001 	             	
        66.968	             	  3.429e-001 	
        67.007	  2.428e-001 	             	
        67.032	             	  3.429e-001 	
        67.071	  2.447e-001 	             	
        67.096	             	  3.430e-001 	
        67.135	  2.445e-001 	             	
        67.160	             	  3.431e-001 	
        67.200	  2.443e-001 	             	
        67.225	             	  3.431e-001 	
        67.264	  2.448e-001 	             	
        67.289	             	  3.432e-001 	
        67.328	  2.435e-001 	             	
        67.353	             	  3.432e-001 	
        67.392	  2.445e-001 	             	
        67.417	             	  3.432e-001 	
        67.456	  2.444e-001 	             	
        67.481	             	  3.431e-001 	
        67.520	  2.451e-001 	             	
        67.545	             	  3.431e-001 	
        67.609	             	  3.431e-001 	
        67.616	  2.443e-001 	             	
        67.680	  2.443e-001 	             	
        67.705	             	  3.431e-001 	
        67.744	  2.428e-001 	             	
        67.769	             	  3.431e-001 	
        67.808	  2.436e-001 	             	
        67.833	             	  3.430e-001 	
        67.872	  2.438e-001 	             	
        67.897	             	  3.430e-001 	
        67.936	  2.439e-001 	             	
        67.961	             	  3.429e-001 	
        68.000	  2.448e-001 	             	
        68.025	             	  3.429e-001 	
        68.064	  2.444e-001 	             	
        68.089	             	  3.428e-001 	
        68.128	  2.444e-001 	             	
        68.153	             	  3.429e-001 	
        68.192	  2.461e-001 	             	
        68.217	             	  3.429e-001 	
        68.256	  2.447e-001 	             	
        68.281	             	  3.429e-001 	
        68.320	  2.460e-001 	             	
        68.345	             	  3.429e-001 	
        68.409	             	  3.429e-001 	
        68.416	  2.460e-001 	             	
        68.480	  2.461e-001 	             	
        68.505	             	  3.429e-001 	
        68.544	  2.453e-001 	             	
        68.569	             	  3.430e-001 	
        68.608	  2.461e-001 	             	
        68.633	             	  3.430e-001 	
        68.672	  2.453e-001 	             	
        68.697	             	  3.429e-001 	
        68.736	  2.461e-001 	             	
        68.761	             	  3.429e-001 	
        68.800	  2.464e-001 	             	
        68.825	             	  3.429e-001 	
        68.864	  2.467e-001 	             	
        68.889	             	  3.429e-001 	
        68.928	  2.458e-001 	             	
        68.953	             	  3.430e-001 	
        68.992	  2.464e-001 	             	
        69.017	             	  3.430e-001 	
        69.056	  2.462e-001 	             	
        69.081	             	  3.430e-001 	
        69.120	  2.457e-001 	             	
        69.145	             	  3.430e-001 	
        69.209	             	  3.429e-001 	
        69.216	  2.450e-001 	             	
        69.280	  2.457e-001 	             	
        69.305	             	  3.429e-001 	
        69.344	  2.460e-001 	             	
        69.369	             	  3.429e-001 	
        69.408	  2.453e-001 	             	
        69.433	             	  3.428e-001 	
        69.472	  2.457e-001 	             	
        69.497	             	  3.427e-001 	
        69.536	  2.460e-001 	             	
        69.561	             	  3.427e-001 	
        69.600	  2.454e-001 	             	
        69.625	             	  3.427e-001 	
        69.664	  2.450e-001 	             	
        69.689	             	  3.427e-001 	
        69.728	  2.450e-001 	             	
        69.753	             	  3.428e-001 	
        69.792	  2.454e-001 	             	
        69.817	             	  3.429e-001 	
        69.856	  2.452e-001 	             	
        69.881	             	  3.428e-001 	
        69.920	  2.444e-001 	             	
        69.945	             	  3.428e-001 	
        70.009	             	  3.428e-001 	
        70.016	  2.457e-001 	             	
        70.080	  2.450e-001 	             	
        70.105	             	  3.427e-001 	
        70.144	  2.462e-001 	             	
        70.169	             	  3.426e-001 	
        70.208	  2.461e-001 	             	
        70.233	             	  3.426e-001 	
        70.272	  2.456e-001 	             	
        70.297	             	  3.425e-001 	
        70.336	  2.464e-001 	             	
        70.361	             	  3.425e-001 	
        70.400	  2.456e-001 	             	
        70.425	             	  3.424e-001 	
        70.464	  2.456e-001 	             	
        70.489	             	  3.424e-001 	
        70.528	  2.458e-001 	             	
        70.553	             	  3.423e-001 	
        70.592	  2.453e-001 	             	
        70.617	             	  3.423e-001 	
        70.656	  2.464e-001 	             	
        70.681	             	  3.422e-001 	
        70.720	  2.459e-001 	             	
        70.745	             	  3.421e-001 	
        70.809	             	  3.422e-001 	
        70.816	  2.464e-001 	             	
        70.880	  2.455e-001 	             	
        70.905	             	  3.422e-001 	
        70.944	  2.440e-001 	             	
        70.969	             	  3.423e-001 	
        71.008	  2.456e-001 	             	
        71.033	             	  3.424e-001 	
        71.072	  2.452e-001 	             	
        71.097	             	  3.424e-001 	
        71.136	  2.456e-001 	             	
        71.161	             	  3.423e-001 	
        71.200	  2.461e-001 	             	
        71.225	             	  3.423e-001 	
        71.264	  2.452e-001 	             	
        71.289	             	  3.423e-001 	
        71.328	  2.452e-001 	             	
        71.353	             	  3.423e-001 	
        71.392	  2.460e-001 	             	
        71.417	             	  3.423e-001 	
        71.456	  2.466e-001 	             	
        71.481	             	  3.424e-001 	
        71.520	  2.460e-001 	             	
        71.545	             	  3.424e-001 	
        71.609	             	  3.424e-001 	
        71.616	  2.459e-001 	             	
        71.680	  2.461e-001 	             	
        71.705	             	  3.424e-001 	
        71.744	  2.458e-001 	             	
        71.769	             	  3.424e-001 	
        71.808	  2.448e-001 	             	
        71.833	             	  3.424e-001 	
        71.872	  2.429e-001 	             	
        71.897	             	  3.425e-001 	
        71.936	  2.438e-001 	             	
        71.961	             	  3.425e-001 	
        72.000	  2.444e-001 	             	
        72.025	             	  3.425e-001 	
        72.064	  2.431e-001 	             	
        72.089	             	  3.425e-001 	
        72.128	  2.429e-001 	             	
        72.153	             	  3.425e-001 	
        72.192	  2.423e-001 	             	
        72.217	             	  3.426e-001 	
        72.256	  2.420e-001 	             	
        72.281	             	  3.426e-001 	
        72.320	  2.407e-001 	             	
        72.345	             	  3.426e-001 	
        72.409	             	  3.425e-001 	
        72.416	  2.408e-001 	             	
        72.480	  2.390e-001 	             	
        72.505	             	  3.425e-001 	
        72.544	  2.384e-001 	             	
        72.569	             	  3.425e-001 	
        72.608	  2.386e-001 	             	
        72.633	             	  3.425e-001 	
        72.672	  2.378e-001 	             	
        72.697	             	  3.424e-001 	
        72.736	  2.376e-001 	             	
        72.761	             	  3.424e-001 	
        72.800	  2.364e-001 	             	
        72.825	             	  3.424e-001 	
        72.864	  2.363e-001 	             	
        72.889	             	  3.423e-001 	
        72.928	  2.378e-001 	             	
        72.953	             	  3.423e-001 	
        72.992	  2.394e-001 	             	
        73.017	             	  3.421e-001 	
        73.056	  2.405e-001 	             	
        73.081	             	  3.421e-001 	
        73.120	  2.408e-001 	             	
        73.145	             	  3.420e-001 	
        73.209	             	  3.420e-001 	
        73.216	  2.419e-001 	             	
        73.280	  2.408e-001 	             	
        73.305	             	  3.420e-001 	
        73.344	  2.427e-001 	             	
        73.369	             	  3.420e-001 	
        73.408	  2.428e-001 	             	
        73.433	             	  3.420e-001 	
        73.472	  2.428e-001 	             	
        73.497	             	  3.420e-001 	
        73.536	  2.442e-001 	             	
        73.561	             	  3.420e-001 	
        73.600	  2.448e-001 	             	
        73.625	             	  3.420e-001 	
        73.664	  2.448e-001 	             	
        73.689	             	  3.421e-001 	
        73.728	  2.457e-001 	             	
        73.753	             	  3.422e-001 	
        73.792	  2.462e-001 	             	
        73.817	             	  3.423e-001 	
        73.856	  2.455e-001 	             	
        73.881	             	  3.424e-001 	
        73.920	  2.463e-001 	             	
        73.945	             	  3.425e-001 	
        74.009	             	  3.425e-001 	
        74.016	  2.480e-001 	             	
        74.080	  2.479e-001 	             	
        74.105	             	  3.426e-001 	
        74.144	  2.488e-001 	             	
        74.169	             	  3.426e-001 	
        74.208	  2.499e-001 	             	
        74.233	             	  3.426e-001 	
        74.272	  2.495e-001 	             	
        74.297	             	  3.425e-001 	
        74.336	  2.485e-001 	             	
        74.361	             	  3.426e-001 	
        74.400	  2.489e-001 	             	
        74.425	             	  3.426e-001 	
        74.464	  2.485e-001 	             	
        74.489	             	  3.427e-001 	
        74.528	  2.490e-001 	             	
        74.553	             	  3.427e-001 	
        74.592	  2.489e-001 	             	
        74.617	             	  3.428e-001 	
        74.656	  2.483e-001 	             	
        74.681	             	  3.428e-001 	
        74.720	  2.484e-001 	             	
        74.745	             	  3.429e-001 	
        74.809	             	  3.430e-001 	
        74.816	  2.493e-001 	             	
        74.880	  2.489e-001 	             	
        74.905	             	  3.431e-001 	
        74.944	  2.491e-001 	             	
        74.969	             	  3.431e-001 	
        75.008	  2.492e-001 	             	
        75.033	             	  3.431e-001 	
        75.072	  2.502e-001 	             	
        75.097	             	  3.431e-001 	
        75.136	  2.487e-001 	             	
        75.161	             	  3.430e-001 	
        75.200	  2.496e-001 	             	
        75.225	             	  3.430e-001 	
        75.264	  2.494e-001 	             	
        75.289	             	  3.430e-001 	
        75.328	  2.497e-001 	             	
        75.353	             	  3.430e-001 	
        75.392	  2.479e-001 	             	
        75.417	             	  3.430e-001 	
        75.456	  2.490e-001 	             	
        75.481	             	  3.431e-001 	
        75.520	  2.492e-001 	             	
        75.545	             	  3.431e-001 	
        75.609	             	  3.432e-001 	
        75.616	  2.489e-001 	             	
        75.680	  2.487e-001 	             	
        75.705	             	  3.432e-001 	
        75.744	  2.483e-001 	             	
        75.769	             	  3.433e-001 	
        75.808	  2.488e-001 	             	
        75.833	             	  3.432e-001 	
        75.872	  2.497e-001 	             	
        75.897	             	  3.432e-001 	
        75.936	  2.485e-001 	             	
        75.961	             	  3.431e-001 	
        76.000	  2.499e-001 	             	
        76.025	             	  3.430e-001 	
        76.064	  2.490e-001 	             	
        76.089	             	  3.430e-001 	
        76.128	  2.477e-001 	             	
        76.153	             	  3.429e-001 	
        76.192	  2.488e-001 	             	
        76.217	             	  3.429e-001 	
        76.256	  2.497e-001 	             	
        76.281	             	  3.428e-001 	
        76.320	  2.492e-001 	             	
        76.345	             	  3.428e-001 	
        76.409	             	  3.429e-001 	
        76.416	  2.489e-001 	             	
        76.473	             	  3.429e-001 	
        76.480	  2.487e-001 	             	
        76.544	  2.500e-001 	             	
        76.569	             	  3.429e-001 	
        76.608	  2.493e-001 	             	
        76.633	             	  3.429e-001 	
        76.672	  2.484e-001 	             	
        76.697	             	  3.430e-001 	
        76.736	  2.497e-001 	             	
        76.761	             	  3.430e-001 	
        76.800	  2.479e-001 	             	
        76.825	             	  3.430e-001 	
        76.864	  2.477e-001 	             	
        76.889	             	  3.429e-001 	
        76.928	  2.488e-001 	             	
        76.953	             	  3.429e-001 	
        76.992	  2.484e-001 	             	
        77.017	             	  3.428e-001 	
        77.056	  2.499e-001 	             	
        77.081	             	  3.428e-001 	
        77.120	  2.482e-001 	             	
        77.145	             	  3.428e-001 	
        77.209	             	  3.428e-001 	
        77.216	  2.488e-001 	             	
        77.272	             	  3.428e-001 	
        77.280	  2.484e-001 	             	
        77.344	  2.483e-001 	             	
        77.368	             	  3.429e-001 	
        77.408	  2.484e-001 	             	
        77.433	             	  3.430e-001 	
        77.472	  2.486e-001 	             	
        77.497	             	  3.430e-001 	
        77.536	  2.481e-001 	             	
        77.561	             	  3.430e-001 	
        77.600	  2.494e-001 	             	
        77.624	             	  3.430e-001 	
        77.664	  2.489e-001 	             	
        77.688	             	  3.429e-001 	
        77.728	  2.484e-001 	             	
        77.752	             	  3.428e-001 	
        77.792	  2.485e-001 	             	
        77.816	             	  3.427e-001 	
        77.856	  2.478e-001 	             	
        77.881	             	  3.426e-001 	
        77.920	  2.494e-001 	             	
        77.944	             	  3.425e-001 	
        78.009	             	  3.425e-001 	
        78.016	  2.493e-001 	             	
        78.072	             	  3.426e-001 	
        78.080	  2.495e-001 	             	
        78.144	  2.497e-001 	             	
        78.168	             	  3.426e-001 	
        78.208	  2.499e-001 	             	
        78.233	             	  3.427e-001 	
        78.272	  2.489e-001 	             	
        78.296	             	  3.427e-001 	
        78.336	  2.493e-001 	             	
        78.360	             	  3.428e-001 	
        78.400	  2.490e-001 	             	
        78.425	             	  3.428e-001 	
        78.464	  2.491e-001 	             	
        78.488	             	  3.429e-001 	
        78.528	  2.495e-001 	             	
        78.552	             	  3.430e-001 	
        78.592	  2.497e-001 	             	
        78.616	             	  3.430e-001 	
        78.656	  2.499e-001 	             	
        78.680	             	  3.430e-001 	
        78.720	  2.507e-001 	             	
        78.744	             	  3.431e-001 	
        78.784	  2.501e-001 	             	
        78.808	             	  3.431e-001 	
        78.872	             	  3.431e-001 	
        78.880	  2.500e-001 	             	
        78.944	  2.498e-001 	             	
        78.968	             	  3.431e-001 	
        79.008	  2.502e-001 	             	
        79.032	             	  3.431e-001 	
        79.072	  2.509e-001 	             	
        79.096	             	  3.431e-001 	
        79.136	  2.503e-001 	             	
        79.160	             	  3.432e-001 	
        79.200	  2.497e-001 	             	
        79.224	             	  3.432e-001 	
        79.264	  2.499e-001 	             	
        79.288	             	  3.431e-001 	
        79.328	  2.498e-001 	             	
        79.352	             	  3.431e-001 	
        79.392	  2.493e-001 	             	
        79.416	             	  3.431e-001 	
        79.456	  2.511e-001 	             	
        79.480	             	  3.431e-001 	
        79.520	  2.501e-001 	             	
        79.544	             	  3.431e-001 	
        79.584	  2.498e-001 	             	
        79.608	             	  3.431e-001 	
        79.672	             	  3.431e-001 	
        79.680	  2.498e-001 	             	
        79.744	  2.502e-001 	             	
        79.768	             	  3.431e-001 	
        79.808	  2.508e-001 	             	
        79.832	             	  3.431e-001 	
        79.872	  2.504e-001 	             	
        79.896	             	  3.431e-001 	
        79.936	  2.495e-001 	             	
        79.960	             	  3.431e-001 	
        80.000	  2.511e-001 	             	
        80.024	             	  3.430e-001 	
        80.064	  2.505e-001 	             	
        80.088	             	  3.429e-001 	
        80.128	  2.507e-001 	             	
        80.152	             	  3.429e-001 	
        80.192	  2.502e-001 	             	
        80.216	             	  3.429e-001 	
        80.256	  2.508e-001 	             	
        80.280	             	  3.429e-001 	
        80.320	  2.502e-001 	             	
        80.344	             	  3.429e-001 	
        80.384	  2.503e-001 	             	
        80.408	             	  3.429e-001 	
        80.472	             	  3.429e-001 	
        80.480	  2.489e-001 	             	
        80.544	  2.500e-001 	             	
        80.568	             	  3.429e-001 	
        80.608	  2.506e-001 	             	
        80.632	             	  3.429e-001 	
        80.672	  2.499e-001 	             	
        80.696	             	  3.429e-001 	
        80.736	  2.497e-001 	             	
        80.760	             	  3.429e-001 	
        80.799	  2.496e-001 	             	
        80.824	             	  3.428e-001 	
        80.864	  2.501e-001 	             	
        80.888	             	  3.427e-001 	
        80.928	  2.496e-001 	             	
        80.952	             	  3.426e-001 	
        80.992	  2.503e-001 	             	
        81.016	             	  3.426e-001 	
        81.056	  2.505e-001 	             	
        81.080	             	  3.425e-001 	
        81.120	  2.505e-001 	             	
        81.144	             	  3.426e-001 	
        81.184	  2.504e-001 	             	
        81.208	             	  3.427e-001 	
        81.272	             	  3.429e-001 	
        81.280	  2.522e-001 	             	
        81.344	  2.500e-001 	             	
        81.368	             	  3.430e-001 	
        81.408	  2.497e-001 	             	
        81.432	             	  3.430e-001 	
        81.472	  2.507e-001 	             	
        81.496	             	  3.430e-001 	
        81.536	  2.516e-001 	             	
        81.560	             	  3.429e-001 	
        81.600	  2.506e-001 	             	
        81.624	             	  3.429e-001 	
        81.663	  2.499e-001 	             	
        81.688	             	  3.429e-001 	
        81.728	  2.513e-001 	             	
        81.752	             	  3.429e-001 	
        81.792	  2.502e-001 	             	
        81.816	             	  3.429e-001 	
        81.856	  2.496e-001 	             	
        81.880	             	  3.430e-001 	
        81.920	  2.497e-001 	             	
        81.944	             	  3.430e-001 	
        81.983	  2.492e-001 	             	
        82.008	             	  3.430e-001 	
        82.072	             	  3.429e-001 	
        82.080	  2.492e-001 	             	
        82.144	  2.489e-001 	             	
        82.168	             	  3.429e-001 	
        82.208	  2.496e-001 	             	
        82.232	             	  3.428e-001 	
        82.272	  2.492e-001 	             	
        82.296	             	  3.428e-001 	
        82.336	  2.497e-001 	             	
        82.360	             	  3.427e-001 	
        82.400	  2.495e-001 	             	
        82.424	             	  3.427e-001 	
        82.463	  2.497e-001 	             	
        82.488	             	  3.427e-001 	
        82.527	  2.491e-001 	             	
        82.552	             	  3.427e-001 	
        82.591	  2.492e-001 	             	
        82.616	             	  3.428e-001 	
        82.655	  2.496e-001 	             	
        82.680	             	  3.428e-001 	
        82.720	  2.501e-001 	             	
        82.744	             	  3.428e-001 	
        82.784	  2.488e-001 	             	
        82.808	             	  3.428e-001 	
        82.872	             	  3.428e-001 	
        82.879	  2.504e-001 	             	
        82.944	  2.494e-001 	             	
        82.968	             	  3.427e-001 	
        83.007	  2.502e-001 	             	
        83.032	             	  3.427e-001 	
        83.071	  2.507e-001 	             	
        83.096	             	  3.427e-001 	
        83.135	  2.497e-001 	             	
        83.160	             	  3.427e-001 	
        83.199	  2.505e-001 	             	
        83.224	             	  3.428e-001 	
        83.263	  2.500e-001 	             	
        83.288	             	  3.428e-001 	
        83.328	  2.507e-001 	             	
        83.352	             	  3.428e-001 	
        83.391	  2.506e-001 	             	
        83.416	             	  3.427e-001 	
        83.455	  2.502e-001 	             	
        83.480	             	  3.427e-001 	
        83.519	  2.497e-001 	             	
        83.544	             	  3.427e-001 	
        83.583	  2.504e-001 	             	
        83.608	             	  3.426e-001 	
        83.672	             	  3.426e-001 	
        83.679	  2.505e-001 	             	
        83.743	  2.494e-001 	             	
        83.768	             	  3.425e-001 	
        83.807	  2.504e-001 	             	
        83.832	             	  3.424e-001 	
        83.872	  2.503e-001 	             	
        83.896	             	  3.424e-001 	
        83.935	  2.511e-001 	             	
        83.960	             	  3.424e-001 	
        83.999	  2.503e-001 	             	
        84.024	             	  3.424e-001 	
        84.063	  2.513e-001 	             	
        84.088	             	  3.424e-001 	
        84.127	  2.503e-001 	             	
        84.152	             	  3.425e-001 	
        84.191	  2.505e-001 	             	
        84.216	             	  3.426e-001 	
        84.255	  2.497e-001 	             	
        84.280	             	  3.427e-001 	
        84.319	  2.506e-001 	             	
        84.344	             	  3.427e-001 	
        84.383	  2.507e-001 	             	
        84.408	             	  3.427e-001 	
        84.472	             	  3.427e-001 	
        84.479	  2.503e-001 	             	
        84.543	  2.519e-001 	             	
        84.568	             	  3.426e-001 	
        84.607	  2.506e-001 	             	
        84.632	             	  3.426e-001 	
        84.672	  2.501e-001 	             	
        84.697	             	  3.426e-001 	
        84.736	  2.508e-001 	             	
        84.761	             	  3.426e-001 	
        84.800	  2.509e-001 	             	
        84.825	             	  3.426e-001 	
        84.864	  2.505e-001 	             	
        84.889	             	  3.425e-001 	
        84.928	  2.513e-001 	             	
        84.953	             	  3.425e-001 	
        84.992	  2.516e-001 	             	
        85.017	             	  3.425e-001 	
        85.056	  2.519e-001 	             	
        85.081	             	  3.424e-001 	
        85.120	  2.516e-001 	             	
        85.145	             	  3.425e-001 	
        85.184	  2.507e-001 	             	
        85.209	             	  3.426e-001 	
        85.273	             	  3.426e-001 	
        85.280	  2.513e-001 	             	
        85.344	  2.503e-001 	             	
        85.369	             	  3.427e-001 	
        85.408	  2.510e-001 	             	
        85.433	             	  3.427e-001 	
        85.472	  2.501e-001 	             	
        85.497	             	  3.426e-001 	
        85.536	  2.499e-001 	             	
        85.561	             	  3.426e-001 	
        85.600	  2.506e-001 	             	
        85.625	             	  3.425e-001 	
        85.664	  2.510e-001 	             	
        85.689	             	  3.425e-001 	
        85.728	  2.510e-001 	             	
        85.753	             	  3.424e-001 	
        85.792	  2.508e-001 	             	
        85.817	             	  3.425e-001 	
        85.856	  2.516e-001 	             	
        85.881	             	  3.425e-001 	
        85.920	  2.512e-001 	             	
        85.945	             	  3.424e-001 	
        85.984	  2.511e-001 	             	
        86.009	             	  3.424e-001 	
        86.073	             	  3.424e-001 	
        86.080	  2.510e-001 	             	
        86.144	  2.514e-001 	             	
        86.169	             	  3.425e-001 	
        86.208	  2.518e-001 	             	
        86.233	             	  3.426e-001 	
        86.272	  2.503e-001 	             	
        86.297	             	  3.426e-001 	
        86.336	  2.513e-001 	             	
        86.361	             	  3.427e-001 	
        86.400	  2.505e-001 	             	
        86.425	             	  3.427e-001 	
        86.464	  2.520e-001 	             	
        86.489	             	  3.428e-001 	
        86.528	  2.515e-001 	             	
        86.553	             	  3.427e-001 	
        86.592	  2.503e-001 	             	
        86.617	             	  3.427e-001 	
        86.656	  2.507e-001 	             	
        86.681	             	  3.427e-001 	
        86.720	  2.507e-001 	             	
        86.745	             	  3.426e-001 	
        86.784	  2.508e-001 	             	
        86.809	             	  3.426e-001 	
        86.873	             	  3.425e-001 	
        86.880	  2.495e-001 	             	
        86.944	  2.512e-001 	             	
        86.969	             	  3.424e-001 	
        87.008	  2.504e-001 	             	
        87.033	             	  3.424e-001 	
        87.072	  2.497e-001 	             	
        87.097	             	  3.424e-001 	
        87.136	  2.494e-001 	             	
        87.161	             	  3.425e-001 	
        87.200	  2.499e-001 	             	
        87.225	             	  3.425e-001 	
        87.264	  2.502e-001 	             	
        87.289	             	  3.425e-001 	
        87.328	  2.491e-001 	             	
        87.353	             	  3.425e-001 	
        87.392	  2.490e-001 	             	
        87.417	             	  3.425e-001 	
        87.456	  2.501e-001 	             	
        87.481	             	  3.424e-001 	
        87.520	  2.487e-001 	             	
        87.545	             	  3.423e-001 	
        87.584	  2.502e-001 	             	
        87.609	             	  3.424e-001 	
        87.673	             	  3.423e-001 	
        87.680	  2.511e-001 	             	
        87.744	  2.499e-001 	             	
        87.769	             	  3.424e-001 	
        87.808	  2.507e-001 	             	
        87.833	             	  3.424e-001 	
        87.872	  2.499e-001 	             	
        87.897	             	  3.425e-001 	
        87.936	  2.503e-001 	             	
        87.961	             	  3.426e-001 	
        88.000	  2.498e-001 	             	
        88.025	             	  3.426e-001 	
        88.064	  2.503e-001 	             	
        88.089	             	  3.426e-001 	
        88.128	  2.501e-001 	             	
        88.153	             	  3.426e-001 	
        88.192	  2.514e-001 	             	
        88.217	             	  3.426e-001 	
        88.256	  2.502e-001 	             	
        88.281	             	  3.425e-001 	
        88.320	  2.506e-001 	             	
        88.345	             	  3.425e-001 	
        88.384	  2.509e-001 	             	
        88.409	             	  3.424e-001 	
        88.473	             	  3.424e-001 	
        88.480	  2.503e-001 	             	
        88.544	  2.506e-001 	             	
        88.569	             	  3.424e-001 	
        88.608	  2.506e-001 	             	
        88.633	             	  3.424e-001 	
        88.672	  2.507e-001 	             	
        88.697	             	  3.423e-001 	
        88.736	  2.506e-001 	             	
        88.761	             	  3.424e-001 	
        88.800	  2.502e-001 	             	
        88.825	             	  3.424e-001 	
        88.864	  2.503e-001 	             	
        88.889	             	  3.424e-001 	
        88.928	  2.519e-001 	             	
        88.953	             	  3.424e-001 	
        88.992	  2.507e-001 	             	
        89.017	             	  3.423e-001 	
        89.056	  2.509e-001 	             	
        89.081	             	  3.424e-001 	
        89.120	  2.519e-001 	             	
        89.145	             	  3.423e-001 	
        89.184	  2.506e-001 	             	
        89.209	             	  3.423e-001 	
        89.273	             	  3.423e-001 	
        89.280	  2.502e-001 	             	
        89.337	             	  3.423e-001 	
        89.344	  2.508e-001 	             	
        89.408	  2.508e-001 	             	
        89.433	             	  3.422e-001 	
        89.472	  2.501e-001 	             	
        89.497	             	  3.421e-001 	
        89.536	  2.514e-001 	             	
        89.561	             	  3.422e-001 	
        89.600	  2.514e-001 	             	
        89.625	             	  3.421e-001 	
        89.664	  2.515e-001 	             	
        89.689	             	  3.422e-001 	
        89.728	  2.513e-001 	             	
        89.753	             	  3.422e-001 	
        89.792	  2.515e-001 	             	
        89.817	             	  3.422e-001 	
        89.856	  2.508e-001 	             	
        89.881	             	  3.422e-001 	
        89.920	  2.517e-001 	             	
        89.945	             	  3.422e-001 	
        89.984	  2.516e-001 	             	
        90.009	             	  3.422e-001 	
        90.073	             	  3.423e-001 	
        90.080	  2.516e-001 	             	
        90.137	             	  3.423e-001 	
        90.144	  2.511e-001 	             	
        90.208	  2.510e-001 	             	
        90.233	             	  3.423e-001 	
        90.272	  2.513e-001 	             	
        90.297	             	  3.423e-001 	
        90.336	  2.524e-001 	             	
        90.361	             	  3.423e-001 	
        90.400	  2.520e-001 	             	
        90.425	             	  3.422e-001 	
        90.464	  2.510e-001 	             	
        90.489	             	  3.422e-001 	
        90.528	  2.518e-001 	             	
        90.553	             	  3.423e-001 	
        90.592	  2.512e-001 	             	
        90.617	             	  3.423e-001 	
        90.656	  2.519e-001 	             	
        90.681	             	  3.424e-001 	
        90.720	  2.518e-001 	             	
        90.745	             	  3.424e-001 	
        90.784	  2.522e-001 	             	
        90.809	             	  3.424e-001 	
        90.873	             	  3.424e-001 	
        90.880	  2.516e-001 	             	
        90.937	             	  3.424e-001 	
        90.944	  2.511e-001 	             	
        91.008	  2.510e-001 	             	
        91.033	             	  3.425e-001 	
        91.072	  2.528e-001 	             	
        91.097	             	  3.425e-001 	
        91.136	  2.514e-001 	             	
        91.161	             	  3.425e-001 	
        91.200	  2.518e-001 	             	
        91.225	             	  3.425e-001 	
        91.264	  2.514e-001 	             	
        91.289	             	  3.426e-001 	
        91.328	  2.521e-001 	             	
        91.353	             	  3.426e-001 	
        91.392	  2.520e-001 	             	
        91.417	             	  3.426e-001 	
        91.456	  2.524e-001 	             	
        91.481	             	  3.426e-001 	
        91.520	  2.513e-001 	             	
        91.545	             	  3.426e-001 	
        91.584	  2.505e-001 	             	
        91.609	             	  3.426e-001 	
        91.648	  2.514e-001 	             	
        91.673	             	  3.426e-001 	
        91.737	             	  3.426e-001 	
        91.744	  2.515e-001 	             	
        91.808	  2.525e-001 	             	
        91.833	             	  3.426e-001 	
        91.872	  2.525e-001 	             	
        91.897	             	  3.426e-001 	
        91.936	  2.517e-001 	             	
        91.961	             	  3.427e-001 	
        92.000	  2.513e-001 	             	
        92.025	             	  3.427e-001 	
        92.064	  2.514e-001 	             	
        92.089	             	  3.427e-001 	
        92.128	  2.514e-001 	             	
        92.153	             	  3.426e-001 	
        92.192	  2.514e-001 	             	
        92.217	             	  3.426e-001 	
        92.256	  2.528e-001 	             	
        92.281	             	  3.426e-001 	
        92.320	  2.508e-001 	             	
        92.345	             	  3.426e-001 	
        92.384	  2.497e-001 	             	
        92.409	             	  3.425e-001 	
        92.448	  2.523e-001 	             	
        92.473	             	  3.425e-001 	
        92.537	             	  3.425e-001 	
        92.544	  2.506e-001 	             	
        92.608	  2.499e-001 	             	
        92.633	             	  3.425e-001 	
        92.672	  2.505e-001 	             	
        92.697	             	  3.424e-001 	
        92.736	  2.501e-001 	             	
        92.761	             	  3.424e-001 	
        92.800	  2.520e-001 	             	
        92.825	             	  3.424e-001 	
        92.864	  2.513e-001 	             	
        92.889	             	  3.424e-001 	
        92.928	  2.523e-001 	             	
        92.953	             	  3.425e-001 	
        92.992	  2.500e-001 	             	
        93.017	             	  3.425e-001 	
        93.056	  2.491e-001 	             	
        93.081	             	  3.426e-001 	
        93.120	  2.498e-001 	             	
        93.145	             	  3.427e-001 	
        93.184	  2.509e-001 	             	
        93.209	             	  3.427e-001 	
        93.248	  2.501e-001 	             	
        93.273	             	  3.427e-001 	
        93.337	             	  3.426e-001 	
        93.344	  2.511e-001 	             	
        93.408	  2.517e-001 	             	
        93.433	             	  3.427e-001 	
        93.472	  2.005e-001 	             	
        93.497	             	  3.427e-001 	
        93.561	             	  3.421e-001 	
        93.625	             	  3.377e-001 	
        93.689	             	  3.269e-001 	
        93.728	  1.000e-005 	             	
        93.753	             	  3.096e-001 	
        93.792	  1.000e-005 	             	
        93.817	             	  2.873e-001 	
        93.856	  1.000e-005 	             	
        93.880	             	  2.619e-001 	
        93.920	  1.000e-005 	             	
        93.945	             	  2.355e-001 	
        93.984	  1.000e-005 	             	
        94.009	             	  2.097e-001 	
        94.048	  1.000e-005 	             	
        94.073	             	  1.856e-001 	
        94.137	             	  1.639e-001 	
        94.144	  1.000e-005 	             	
        94.208	  1.000e-005 	             	
        94.233	             	  1.448e-001 	
        94.272	  1.000e-005 	             	
        94.297	             	  1.284e-001 	
        94.336	  1.000e-005 	             	
        94.361	             	  1.145e-001 	
        94.400	  1.000e-005 	             	
        94.424	             	  1.029e-001 	
        94.464	  1.000e-005 	             	
        94.489	             	  9.310e-002 	
        94.528	  1.000e-005 	             	
        94.553	             	  8.490e-002 	
        94.592	  1.000e-005 	             	
        94.617	             	  7.790e-002 	
        94.656	  1.000e-005 	             	
        94.681	             	  7.200e-002 	
        94.720	  1.000e-005 	             	
        94.745	             	  6.680e-002 	
        94.784	  1.000e-005 	             	
        94.809	             	  6.230e-002 	
        94.848	  1.000e-005 	             	
        94.873	             	  5.820e-002 	
        94.937	             	  5.460e-002 	
        94.944	  1.000e-005 	             	
        95.008	  1.000e-005 	             	
        95.033	             	  5.140e-002 	
        95.072	  1.000e-005 	             	
        95.097	             	  4.840e-002 	
        95.136	  1.000e-005 	             	
        95.160	             	  4.560e-002 	
        95.200	  1.000e-005 	             	
        95.225	             	  4.320e-002 	
        95.264	  1.000e-005 	             	
        95.288	             	  4.080e-002 	
        95.328	  1.000e-005 	             	
        95.353	             	  3.860e-002 	
        95.392	  1.000e-005 	             	
        95.416	             	  3.640e-002 	
        95.456	  1.000e-005 	             	
        95.481	             	  3.440e-002 	
        95.520	  1.000e-005 	             	
        95.544	             	  3.250e-002 	
        95.584	  1.000e-005 	             	
        95.608	             	  3.070e-002 	
        95.648	  1.000e-005 	             	
        95.673	             	  2.910e-002 	
        95.736	             	  2.750e-002 	
        95.744	  1.000e-005 	             	
        95.808	  1.000e-005 	             	
        95.832	             	  2.610e-002 	
        95.872	  1.000e-005 	             	
        95.896	             	  2.480e-002 	
        95.936	  1.000e-005 	             	
        95.960	             	  2.360e-002 	
        96.000	  1.000e-005 	             	
        96.024	             	  2.250e-002 	
        96.064	  1.000e-005 	             	
        96.088	             	  2.130e-002 	
        96.128	  1.000e-005 	             	
        96.152	             	  2.020e-002 	
        96.192	  1.000e-005 	             	
        96.216	             	  1.920e-002 	
        96.256	  1.000e-005 	             	
        96.280	             	  1.830e-002 	
        96.320	  1.000e-005 	             	
        96.344	             	  1.740e-002 	
        96.384	  1.000e-005 	             	
        96.408	             	  1.660e-002 	
        96.448	  1.000e-005 	             	
        96.472	             	  1.590e-002 	
        96.536	             	  1.510e-002 	
        96.544	  1.000e-005 	             	
        96.608	  1.000e-005 	             	
        96.632	             	  1.430e-002 	
        96.672	  1.000e-005 	             	
        96.696	             	  1.360e-002 	
        96.736	  1.000e-005 	             	
        96.760	             	  1.290e-002 	
        96.800	  1.000e-005 	             	
        96.824	             	  1.230e-002 	
        96.864	  1.000e-005 	             	
        96.888	             	  1.180e-002 	
        96.928	  1.000e-005 	             	
        96.952	             	  1.130e-002 	
