;PC Software:StarLab Version 2.10 Build 25
;Logged:23/09/2022 at 16:56:21
;File Version:3
;Graph Type:Line
;Notes:                                                            

;Channel A:Nova II Photodiode PD300-3W-v1 (s/n:763106)  NN2.52 (s/n:767396)
;Channel B:Vega Thermopile 10A-V1.1 (s/n:693380)  VG2.44 (s/n:858327)

;Channel A:Details
;Name:PD300-3W-v1
;Graph Color:RGB(0,102,255)
;Units:W
;Settings:Measuring:Power
;Settings:Wavelength:1064
;Settings:Range:AUTO
;Settings:Filter:IN

;Channel B:Details
;Name:10A-V1.1
;Graph Color:RGB(154,0,0)
;Units:W
;Settings:Measuring:Power
;Settings:Laser:.8-6
;Settings:Range:5.00W
;--------------------


;First Pulse Arrived : 23/09/2022 at 16:56:21.891000
  Timestamp   	  Channel A  	  Channel B  	
         0.000	  7.750e-003 	             	
         0.022	             	  5.080e-001 	
         0.064	  7.740e-003 	             	
         0.086	             	  5.080e-001 	
         0.128	  7.730e-003 	             	
         0.150	             	  5.080e-001 	
         0.192	  7.720e-003 	             	
         0.246	             	  5.080e-001 	
         0.256	  7.770e-003 	             	
         0.310	             	  5.080e-001 	
         0.320	  7.760e-003 	             	
         0.374	             	  5.080e-001 	
         0.384	  7.750e-003 	             	
         0.438	             	  5.080e-001 	
         0.448	  7.760e-003 	             	
         0.502	             	  5.080e-001 	
         0.544	  7.740e-003 	             	
         0.566	             	  5.080e-001 	
         0.608	  7.740e-003 	             	
         0.630	             	  5.080e-001 	
         0.672	  7.750e-003 	             	
         0.694	             	  5.080e-001 	
         0.736	  7.740e-003 	             	
         0.758	             	  5.080e-001 	
         0.800	  7.770e-003 	             	
         0.822	             	  5.090e-001 	
         0.864	  7.740e-003 	             	
         0.886	             	  5.080e-001 	
         0.928	  7.740e-003 	             	
         0.950	             	  5.080e-001 	
         0.992	  7.720e-003 	             	
         1.046	             	  5.080e-001 	
         1.056	  7.740e-003 	             	
         1.110	             	  5.080e-001 	
         1.120	  7.710e-003 	             	
         1.174	             	  5.080e-001 	
         1.184	  7.690e-003 	             	
         1.238	             	  5.080e-001 	
         1.248	  7.700e-003 	             	
         1.302	             	  5.080e-001 	
         1.344	  7.710e-003 	             	
         1.366	             	  5.080e-001 	
         1.409	  7.720e-003 	             	
         1.431	             	  5.080e-001 	
         1.472	  7.700e-003 	             	
         1.495	             	  5.080e-001 	
         1.537	  7.700e-003 	             	
         1.559	             	  5.080e-001 	
         1.600	  7.710e-003 	             	
         1.623	             	  5.080e-001 	
         1.664	  7.720e-003 	             	
         1.687	             	  5.080e-001 	
         1.729	  7.710e-003 	             	
         1.751	             	  5.080e-001 	
         1.793	  7.740e-003 	             	
         1.847	             	  5.080e-001 	
         1.856	  7.750e-003 	             	
         1.911	             	  5.080e-001 	
         1.921	  7.720e-003 	             	
         1.975	             	  5.080e-001 	
         1.985	  7.770e-003 	             	
         2.039	             	  5.080e-001 	
         2.049	  7.790e-003 	             	
         2.103	             	  5.080e-001 	
         2.145	  7.760e-003 	             	
         2.167	             	  5.080e-001 	
         2.209	  7.790e-003 	             	
         2.231	             	  5.080e-001 	
         2.273	  7.790e-003 	             	
         2.295	             	  5.080e-001 	
         2.337	  7.800e-003 	             	
         2.359	             	  5.080e-001 	
         2.400	  7.790e-003 	             	
         2.423	             	  5.080e-001 	
         2.465	  7.750e-003 	             	
         2.487	             	  5.080e-001 	
         2.529	  7.790e-003 	             	
         2.551	             	  5.080e-001 	
         2.592	  7.720e-003 	             	
         2.647	             	  5.080e-001 	
         2.656	  7.720e-003 	             	
         2.711	             	  5.080e-001 	
         2.720	  7.690e-003 	             	
         2.775	             	  5.080e-001 	
         2.784	  7.680e-003 	             	
         2.839	             	  5.080e-001 	
         2.849	  7.730e-003 	             	
         2.903	             	  5.080e-001 	
         2.944	  7.710e-003 	             	
         2.967	             	  5.080e-001 	
         3.008	  7.720e-003 	             	
         3.031	             	  5.080e-001 	
         3.072	  7.700e-003 	             	
         3.095	             	  5.080e-001 	
         3.136	  7.740e-003 	             	
         3.159	             	  5.080e-001 	
         3.200	  7.740e-003 	             	
         3.223	             	  5.080e-001 	
         3.264	  7.730e-003 	             	
         3.287	             	  5.080e-001 	
         3.328	  7.770e-003 	             	
         3.351	             	  5.080e-001 	
         3.392	  7.770e-003 	             	
         3.447	             	  5.080e-001 	
         3.456	  7.780e-003 	             	
         3.511	             	  5.080e-001 	
         3.520	  7.800e-003 	             	
         3.575	             	  5.080e-001 	
         3.584	  7.820e-003 	             	
         3.639	             	  5.080e-001 	
         3.648	  7.770e-003 	             	
         3.703	             	  5.080e-001 	
         3.744	  7.820e-003 	             	
         3.767	             	  5.080e-001 	
         3.808	  7.760e-003 	             	
         3.831	             	  5.080e-001 	
         3.872	  7.810e-003 	             	
         3.895	             	  5.080e-001 	
         3.936	  7.820e-003 	             	
         3.959	             	  5.080e-001 	
         4.000	  7.850e-003 	             	
         4.023	             	  5.080e-001 	
         4.064	  7.830e-003 	             	
         4.087	             	  5.080e-001 	
         4.128	  7.810e-003 	             	
         4.151	             	  5.080e-001 	
         4.192	  7.810e-003 	             	
         4.247	             	  5.080e-001 	
         4.256	  7.820e-003 	             	
         4.311	             	  5.080e-001 	
         4.320	  7.820e-003 	             	
         4.375	             	  5.080e-001 	
         4.384	  7.840e-003 	             	
         4.439	             	  5.080e-001 	
         4.448	  7.840e-003 	             	
         4.503	             	  5.080e-001 	
         4.512	  7.820e-003 	             	
         4.567	             	  5.080e-001 	
         4.608	  7.820e-003 	             	
         4.631	             	  5.080e-001 	
         4.672	  7.780e-003 	             	
         4.695	             	  5.080e-001 	
         4.736	  7.800e-003 	             	
         4.759	             	  5.080e-001 	
         4.800	  7.790e-003 	             	
         4.823	             	  5.080e-001 	
         4.864	  7.720e-003 	             	
         4.887	             	  5.080e-001 	
         4.928	  7.760e-003 	             	
         4.951	             	  5.080e-001 	
         4.992	  7.750e-003 	             	
         5.047	             	  5.080e-001 	
         5.056	  7.750e-003 	             	
         5.111	             	  5.080e-001 	
         5.120	  7.740e-003 	             	
         5.175	             	  5.080e-001 	
         5.184	  7.700e-003 	             	
         5.239	             	  5.080e-001 	
         5.248	  7.670e-003 	             	
         5.303	             	  5.080e-001 	
         5.312	  7.700e-003 	             	
         5.367	             	  5.090e-001 	
         5.408	  7.690e-003 	             	
         5.431	             	  5.090e-001 	
         5.472	  7.660e-003 	             	
         5.495	             	  5.080e-001 	
         5.536	  7.680e-003 	             	
         5.559	             	  5.080e-001 	
         5.600	  7.650e-003 	             	
         5.623	             	  5.080e-001 	
         5.664	  7.700e-003 	             	
         5.687	             	  5.080e-001 	
         5.728	  7.670e-003 	             	
         5.751	             	  5.080e-001 	
         5.792	  7.700e-003 	             	
         5.847	             	  5.080e-001 	
         5.856	  7.670e-003 	             	
         5.911	             	  5.080e-001 	
         5.920	  7.680e-003 	             	
         5.975	             	  5.080e-001 	
         5.984	  7.680e-003 	             	
         6.039	             	  5.080e-001 	
         6.048	  7.650e-003 	             	
         6.103	             	  5.080e-001 	
         6.112	  7.690e-003 	             	
         6.167	             	  5.080e-001 	
         6.208	  7.720e-003 	             	
         6.231	             	  5.080e-001 	
         6.272	  7.700e-003 	             	
         6.295	             	  5.080e-001 	
         6.336	  7.730e-003 	             	
         6.359	             	  5.080e-001 	
         6.400	  7.720e-003 	             	
         6.423	             	  5.080e-001 	
         6.464	  7.750e-003 	             	
         6.487	             	  5.090e-001 	
         6.528	  7.750e-003 	             	
         6.551	             	  5.090e-001 	
         6.592	  7.740e-003 	             	
         6.647	             	  5.090e-001 	
         6.656	  7.710e-003 	             	
         6.711	             	  5.090e-001 	
         6.720	  7.740e-003 	             	
         6.775	             	  5.080e-001 	
         6.784	  7.700e-003 	             	
         6.839	             	  5.080e-001 	
         6.848	  7.730e-003 	             	
         6.903	             	  5.080e-001 	
         6.912	  7.720e-003 	             	
         6.967	             	  5.080e-001 	
         7.008	  7.730e-003 	             	
         7.031	             	  5.080e-001 	
         7.072	  7.730e-003 	             	
         7.095	             	  5.080e-001 	
         7.136	  7.740e-003 	             	
         7.159	             	  5.080e-001 	
         7.200	  7.730e-003 	             	
         7.223	             	  5.080e-001 	
         7.264	  7.750e-003 	             	
         7.287	             	  5.080e-001 	
         7.328	  7.770e-003 	             	
         7.351	             	  5.080e-001 	
         7.392	  7.780e-003 	             	
         7.447	             	  5.080e-001 	
         7.456	  7.760e-003 	             	
         7.511	             	  5.080e-001 	
         7.520	  7.750e-003 	             	
         7.575	             	  5.080e-001 	
         7.584	  7.790e-003 	             	
         7.639	             	  5.080e-001 	
         7.648	  7.820e-003 	             	
         7.703	             	  5.080e-001 	
         7.712	  7.790e-003 	             	
         7.767	             	  5.080e-001 	
         7.808	  7.760e-003 	             	
         7.831	             	  5.080e-001 	
         7.872	  7.750e-003 	             	
         7.895	             	  5.080e-001 	
         7.936	  7.710e-003 	             	
         7.959	             	  5.080e-001 	
         8.000	  7.690e-003 	             	
         8.023	             	  5.080e-001 	
         8.064	  7.690e-003 	             	
         8.087	             	  5.080e-001 	
         8.128	  7.690e-003 	             	
         8.151	             	  5.080e-001 	
         8.192	  7.720e-003 	             	
         8.247	             	  5.080e-001 	
         8.256	  7.690e-003 	             	
         8.311	             	  5.080e-001 	
         8.320	  7.730e-003 	             	
         8.375	             	  5.080e-001 	
         8.384	  7.740e-003 	             	
         8.439	             	  5.080e-001 	
         8.448	  7.770e-003 	             	
         8.503	             	  5.080e-001 	
         8.512	  7.780e-003 	             	
         8.567	             	  5.080e-001 	
         8.608	  7.810e-003 	             	
         8.631	             	  5.080e-001 	
         8.672	  7.790e-003 	             	
         8.695	             	  5.080e-001 	
         8.736	  7.790e-003 	             	
         8.759	             	  5.080e-001 	
         8.800	  7.780e-003 	             	
         8.823	             	  5.080e-001 	
         8.864	  7.820e-003 	             	
         8.887	             	  5.080e-001 	
         8.928	  7.830e-003 	             	
         8.951	             	  5.080e-001 	
         8.992	  7.850e-003 	             	
         9.047	             	  5.080e-001 	
         9.056	  7.810e-003 	             	
         9.111	             	  5.080e-001 	
         9.120	  7.840e-003 	             	
         9.175	             	  5.080e-001 	
         9.184	  7.860e-003 	             	
         9.239	             	  5.080e-001 	
         9.248	  7.840e-003 	             	
         9.303	             	  5.080e-001 	
         9.312	  7.850e-003 	             	
         9.367	             	  5.080e-001 	
         9.408	  7.800e-003 	             	
         9.431	             	  5.080e-001 	
         9.472	  7.840e-003 	             	
         9.495	             	  5.080e-001 	
         9.536	  7.840e-003 	             	
         9.559	             	  5.080e-001 	
         9.600	  7.850e-003 	             	
         9.623	             	  5.080e-001 	
         9.664	  7.860e-003 	             	
         9.687	             	  5.080e-001 	
         9.728	  7.820e-003 	             	
         9.751	             	  5.080e-001 	
         9.792	  7.810e-003 	             	
         9.847	             	  5.080e-001 	
         9.856	  7.790e-003 	             	
         9.911	             	  5.080e-001 	
         9.920	  7.780e-003 	             	
         9.975	             	  5.080e-001 	
         9.984	  7.780e-003 	             	
        10.039	             	  5.080e-001 	
        10.048	  7.770e-003 	             	
        10.103	             	  5.080e-001 	
        10.112	  7.750e-003 	             	
        10.167	             	  5.080e-001 	
        10.208	  7.780e-003 	             	
        10.231	             	  5.080e-001 	
        10.272	  7.760e-003 	             	
        10.295	             	  5.080e-001 	
        10.336	  7.730e-003 	             	
        10.359	             	  5.080e-001 	
        10.400	  7.770e-003 	             	
        10.423	             	  5.080e-001 	
        10.464	  7.760e-003 	             	
        10.487	             	  5.080e-001 	
        10.528	  7.740e-003 	             	
        10.551	             	  5.080e-001 	
        10.592	  7.700e-003 	             	
        10.647	             	  5.080e-001 	
        10.656	  7.680e-003 	             	
        10.711	             	  5.080e-001 	
        10.720	  7.680e-003 	             	
        10.775	             	  5.080e-001 	
        10.784	  7.670e-003 	             	
        10.839	             	  5.080e-001 	
        10.848	  7.700e-003 	             	
        10.903	             	  5.080e-001 	
        10.912	  7.700e-003 	             	
        10.967	             	  5.090e-001 	
        11.008	  7.700e-003 	             	
        11.031	             	  5.080e-001 	
        11.072	  7.730e-003 	             	
        11.095	             	  5.080e-001 	
        11.136	  7.690e-003 	             	
        11.159	             	  5.080e-001 	
        11.200	  7.730e-003 	             	
        11.223	             	  5.080e-001 	
        11.264	  7.730e-003 	             	
        11.287	             	  5.080e-001 	
        11.328	  7.710e-003 	             	
        11.351	             	  5.080e-001 	
        11.392	  7.710e-003 	             	
        11.415	             	  5.080e-001 	
        11.456	  7.730e-003 	             	
        11.511	             	  5.080e-001 	
        11.520	  7.730e-003 	             	
        11.575	             	  5.080e-001 	
        11.584	  7.740e-003 	             	
        11.639	             	  5.080e-001 	
        11.648	  7.750e-003 	             	
        11.702	             	  5.080e-001 	
        11.712	  7.770e-003 	             	
        11.767	             	  5.080e-001 	
        11.808	  7.740e-003 	             	
        11.831	             	  5.080e-001 	
        11.872	  7.740e-003 	             	
        11.895	             	  5.080e-001 	
        11.936	  7.740e-003 	             	
        11.959	             	  5.080e-001 	
        12.000	  7.750e-003 	             	
        12.023	             	  5.080e-001 	
        12.064	  7.780e-003 	             	
        12.087	             	  5.080e-001 	
        12.128	  7.760e-003 	             	
        12.150	             	  5.080e-001 	
        12.192	  7.770e-003 	             	
        12.215	             	  5.080e-001 	
        12.256	  7.760e-003 	             	
        12.310	             	  5.080e-001 	
        12.320	  7.770e-003 	             	
        12.375	             	  5.080e-001 	
        12.384	  7.780e-003 	             	
        12.439	             	  5.080e-001 	
        12.448	  7.780e-003 	             	
        12.503	             	  5.080e-001 	
        12.512	  7.770e-003 	             	
        12.566	             	  5.080e-001 	
        12.608	  7.790e-003 	             	
        12.630	             	  5.080e-001 	
        12.672	  7.790e-003 	             	
        12.694	             	  5.080e-001 	
        12.736	  7.810e-003 	             	
        12.759	             	  5.080e-001 	
        12.800	  7.770e-003 	             	
        12.822	             	  5.080e-001 	
        12.864	  7.800e-003 	             	
        12.886	             	  5.080e-001 	
        12.928	  7.790e-003 	             	
        12.951	             	  5.090e-001 	
        12.992	  7.780e-003 	             	
        13.014	             	  5.090e-001 	
        13.056	  7.790e-003 	             	
        13.111	             	  5.090e-001 	
        13.120	  7.850e-003 	             	
        13.174	             	  5.090e-001 	
        13.184	  7.800e-003 	             	
        13.238	             	  5.090e-001 	
        13.248	  7.780e-003 	             	
        13.302	             	  5.080e-001 	
        13.312	  7.730e-003 	             	
        13.366	             	  5.080e-001 	
        13.408	  7.740e-003 	             	
        13.430	             	  5.080e-001 	
        13.472	  7.720e-003 	             	
        13.494	             	  5.080e-001 	
        13.536	  7.730e-003 	             	
        13.558	             	  5.080e-001 	
        13.600	  7.780e-003 	             	
        13.622	             	  5.080e-001 	
        13.664	  7.790e-003 	             	
        13.686	             	  5.080e-001 	
        13.728	  7.820e-003 	             	
        13.750	             	  5.080e-001 	
        13.792	  7.790e-003 	             	
        13.814	             	  5.090e-001 	
        13.856	  7.810e-003 	             	
        13.910	             	  5.090e-001 	
        13.920	  7.800e-003 	             	
        13.974	             	  5.080e-001 	
        13.984	  7.830e-003 	             	
        14.038	             	  5.080e-001 	
        14.048	  7.820e-003 	             	
        14.102	             	  5.080e-001 	
        14.112	  7.850e-003 	             	
        14.166	             	  5.080e-001 	
        14.208	  7.900e-003 	             	
        14.230	             	  5.080e-001 	
        14.272	  7.920e-003 	             	
        14.294	             	  5.090e-001 	
        14.336	  7.920e-003 	             	
        14.358	             	  5.080e-001 	
        14.400	  7.930e-003 	             	
        14.422	             	  5.080e-001 	
        14.464	  7.920e-003 	             	
        14.486	             	  5.080e-001 	
        14.528	  7.970e-003 	             	
        14.550	             	  5.080e-001 	
        14.592	  7.980e-003 	             	
        14.614	             	  5.080e-001 	
        14.656	  7.970e-003 	             	
        14.710	             	  5.090e-001 	
        14.720	  7.960e-003 	             	
        14.774	             	  5.090e-001 	
        14.784	  7.990e-003 	             	
        14.838	             	  5.090e-001 	
        14.848	  7.990e-003 	             	
        14.902	             	  5.080e-001 	
        14.912	  7.930e-003 	             	
        14.966	             	  5.080e-001 	
        15.008	  7.960e-003 	             	
        15.030	             	  5.080e-001 	
        15.072	  7.980e-003 	             	
        15.094	             	  5.080e-001 	
        15.136	  7.970e-003 	             	
        15.158	             	  5.080e-001 	
        15.200	  7.950e-003 	             	
        15.222	             	  5.080e-001 	
        15.264	  7.970e-003 	             	
        15.286	             	  5.080e-001 	
        15.328	  7.940e-003 	             	
        15.350	             	  5.080e-001 	
        15.392	  7.870e-003 	             	
        15.414	             	  5.080e-001 	
        15.456	  7.880e-003 	             	
        15.511	             	  5.080e-001 	
        15.520	  7.880e-003 	             	
        15.574	             	  5.080e-001 	
        15.584	  7.830e-003 	             	
        15.638	             	  5.080e-001 	
        15.648	  7.810e-003 	             	
        15.702	             	  5.080e-001 	
        15.712	  7.760e-003 	             	
        15.766	             	  5.080e-001 	
        15.808	  7.800e-003 	             	
        15.830	             	  5.080e-001 	
        15.872	  7.760e-003 	             	
        15.894	             	  5.080e-001 	
        15.936	  7.770e-003 	             	
        15.958	             	  5.080e-001 	
        16.000	  7.730e-003 	             	
        16.022	             	  5.080e-001 	
        16.064	  7.720e-003 	             	
        16.086	             	  5.080e-001 	
        16.128	  7.740e-003 	             	
        16.150	             	  5.080e-001 	
        16.192	  7.750e-003 	             	
        16.214	             	  5.080e-001 	
        16.256	  7.790e-003 	             	
        16.310	             	  5.080e-001 	
        16.320	  7.810e-003 	             	
        16.374	             	  5.080e-001 	
        16.384	  7.790e-003 	             	
        16.438	             	  5.080e-001 	
        16.448	  7.810e-003 	             	
        16.502	             	  5.080e-001 	
        16.512	  7.810e-003 	             	
        16.566	             	  5.080e-001 	
        16.608	  7.800e-003 	             	
        16.630	             	  5.080e-001 	
        16.672	  7.720e-003 	             	
        16.694	             	  5.080e-001 	
        16.736	  7.740e-003 	             	
        16.758	             	  5.080e-001 	
        16.800	  7.720e-003 	             	
        16.822	             	  5.080e-001 	
        16.864	  7.750e-003 	             	
        16.886	             	  5.080e-001 	
        16.928	  7.760e-003 	             	
        16.950	             	  5.080e-001 	
        16.992	  7.790e-003 	             	
        17.014	             	  5.080e-001 	
        17.056	  7.790e-003 	             	
        17.110	             	  5.080e-001 	
        17.120	  7.800e-003 	             	
        17.174	             	  5.080e-001 	
        17.184	  7.830e-003 	             	
        17.238	             	  5.080e-001 	
        17.248	  7.820e-003 	             	
        17.302	             	  5.080e-001 	
        17.312	  7.860e-003 	             	
        17.366	             	  5.080e-001 	
        17.376	  7.870e-003 	             	
        17.430	             	  5.080e-001 	
        17.472	  7.850e-003 	             	
        17.494	             	  5.080e-001 	
        17.536	  7.900e-003 	             	
        17.558	             	  5.080e-001 	
        17.600	  7.870e-003 	             	
        17.622	             	  5.080e-001 	
        17.664	  7.830e-003 	             	
        17.686	             	  5.080e-001 	
        17.728	  7.830e-003 	             	
        17.750	             	  5.080e-001 	
        17.792	  7.850e-003 	             	
        17.814	             	  5.080e-001 	
        17.856	  7.870e-003 	             	
        17.910	             	  5.080e-001 	
        17.920	  7.920e-003 	             	
        17.974	             	  5.080e-001 	
        17.984	  7.920e-003 	             	
        18.038	             	  5.080e-001 	
        18.048	  7.900e-003 	             	
        18.102	             	  5.080e-001 	
        18.112	  7.910e-003 	             	
        18.166	             	  5.080e-001 	
        18.176	  7.920e-003 	             	
        18.230	             	  5.080e-001 	
        18.272	  7.910e-003 	             	
        18.294	             	  5.080e-001 	
        18.336	  7.910e-003 	             	
        18.358	             	  5.080e-001 	
        18.400	  7.910e-003 	             	
        18.422	             	  5.080e-001 	
        18.464	  7.880e-003 	             	
        18.486	             	  5.080e-001 	
        18.528	  7.840e-003 	             	
        18.550	             	  5.080e-001 	
        18.592	  7.820e-003 	             	
        18.614	             	  5.080e-001 	
        18.656	  7.810e-003 	             	
        18.710	             	  5.080e-001 	
        18.720	  7.830e-003 	             	
        18.774	             	  5.080e-001 	
        18.784	  7.830e-003 	             	
        18.838	             	  5.080e-001 	
        18.847	  7.830e-003 	             	
        18.903	             	  5.080e-001 	
        18.913	  7.860e-003 	             	
        18.967	             	  5.080e-001 	
        18.977	  7.850e-003 	             	
        19.031	             	  5.080e-001 	
        19.073	  7.840e-003 	             	
        19.095	             	  5.080e-001 	
        19.136	  7.890e-003 	             	
        19.159	             	  5.080e-001 	
        19.201	  7.870e-003 	             	
        19.223	             	  5.080e-001 	
        19.264	  7.900e-003 	             	
        19.287	             	  5.080e-001 	
        19.329	  7.900e-003 	             	
        19.351	             	  5.080e-001 	
        19.393	  7.940e-003 	             	
        19.415	             	  5.080e-001 	
        19.457	  7.900e-003 	             	
        19.511	             	  5.080e-001 	
        19.520	  7.940e-003 	             	
        19.575	             	  5.080e-001 	
        19.585	  7.960e-003 	             	
        19.639	             	  5.080e-001 	
        19.648	  7.920e-003 	             	
        19.703	             	  5.090e-001 	
        19.713	  7.950e-003 	             	
        19.767	             	  5.080e-001 	
        19.776	  7.960e-003 	             	
        19.831	             	  5.080e-001 	
        19.872	  7.960e-003 	             	
        19.895	             	  5.090e-001 	
        19.936	  7.970e-003 	             	
        19.959	             	  5.090e-001 	
        20.000	  7.980e-003 	             	
        20.023	             	  5.090e-001 	
        20.064	  7.980e-003 	             	
        20.087	             	  5.090e-001 	
        20.128	  8.000e-003 	             	
        20.151	             	  5.080e-001 	
        20.192	  7.980e-003 	             	
        20.215	             	  5.080e-001 	
        20.256	  7.980e-003 	             	
        20.311	             	  5.080e-001 	
        20.321	  8.030e-003 	             	
        20.375	             	  5.080e-001 	
        20.384	  8.020e-003 	             	
        20.439	             	  5.080e-001 	
        20.448	  7.950e-003 	             	
        20.503	             	  5.080e-001 	
        20.512	  7.940e-003 	             	
        20.567	             	  5.080e-001 	
        20.576	  7.940e-003 	             	
        20.631	             	  5.080e-001 	
        20.672	  7.960e-003 	             	
        20.695	             	  5.080e-001 	
        20.737	  7.890e-003 	             	
        20.759	             	  5.080e-001 	
        20.800	  7.900e-003 	             	
        20.823	             	  5.080e-001 	
        20.864	  7.890e-003 	             	
        20.887	             	  5.080e-001 	
        20.928	  7.900e-003 	             	
        20.951	             	  5.080e-001 	
        20.992	  7.870e-003 	             	
        21.015	             	  5.080e-001 	
        21.057	  7.880e-003 	             	
        21.111	             	  5.080e-001 	
        21.120	  7.860e-003 	             	
        21.175	             	  5.080e-001 	
        21.184	  7.860e-003 	             	
        21.239	             	  5.080e-001 	
        21.248	  7.830e-003 	             	
        21.303	             	  5.080e-001 	
        21.312	  7.810e-003 	             	
        21.367	             	  5.080e-001 	
        21.376	  7.840e-003 	             	
        21.431	             	  5.080e-001 	
        21.472	  7.820e-003 	             	
        21.495	             	  5.090e-001 	
        21.536	  7.840e-003 	             	
        21.559	             	  5.090e-001 	
        21.600	  7.840e-003 	             	
        21.623	             	  5.090e-001 	
        21.664	  7.850e-003 	             	
        21.687	             	  5.090e-001 	
        21.728	  7.830e-003 	             	
        21.751	             	  5.090e-001 	
        21.792	  7.790e-003 	             	
        21.815	             	  5.090e-001 	
        21.856	  7.830e-003 	             	
        21.911	             	  5.090e-001 	
        21.920	  7.800e-003 	             	
        21.975	             	  5.080e-001 	
        21.984	  7.840e-003 	             	
        22.039	             	  5.080e-001 	
        22.048	  7.840e-003 	             	
        22.103	             	  5.080e-001 	
        22.112	  7.850e-003 	             	
        22.167	             	  5.080e-001 	
        22.176	  7.850e-003 	             	
        22.231	             	  5.080e-001 	
        22.272	  7.870e-003 	             	
        22.295	             	  5.080e-001 	
        22.336	  7.880e-003 	             	
        22.359	             	  5.080e-001 	
        22.400	  7.930e-003 	             	
        22.423	             	  5.080e-001 	
        22.464	  7.890e-003 	             	
        22.487	             	  5.080e-001 	
        22.528	  7.950e-003 	             	
        22.551	             	  5.080e-001 	
        22.592	  7.950e-003 	             	
        22.615	             	  5.080e-001 	
        22.656	  7.970e-003 	             	
        22.711	             	  5.080e-001 	
        22.720	  7.990e-003 	             	
        22.775	             	  5.080e-001 	
        22.784	  7.980e-003 	             	
        22.839	             	  5.080e-001 	
        22.848	  8.020e-003 	             	
        22.903	             	  5.080e-001 	
        22.912	  8.020e-003 	             	
        22.967	             	  5.080e-001 	
        22.976	  7.960e-003 	             	
        23.031	             	  5.080e-001 	
        23.072	  7.990e-003 	             	
        23.095	             	  5.080e-001 	
        23.136	  7.970e-003 	             	
        23.159	             	  5.080e-001 	
        23.200	  8.000e-003 	             	
        23.223	             	  5.080e-001 	
        23.264	  7.980e-003 	             	
        23.287	             	  5.080e-001 	
        23.328	  8.010e-003 	             	
        23.351	             	  5.080e-001 	
        23.392	  8.000e-003 	             	
        23.415	             	  5.080e-001 	
        23.456	  7.980e-003 	             	
        23.511	             	  5.080e-001 	
        23.520	  8.040e-003 	             	
        23.575	             	  5.080e-001 	
        23.584	  8.010e-003 	             	
        23.639	             	  5.080e-001 	
        23.648	  8.010e-003 	             	
        23.703	             	  5.080e-001 	
        23.712	  8.010e-003 	             	
        23.767	             	  5.080e-001 	
        23.776	  7.970e-003 	             	
        23.831	             	  5.080e-001 	
        23.872	  7.940e-003 	             	
        23.895	             	  5.080e-001 	
        23.936	  7.950e-003 	             	
        23.959	             	  5.080e-001 	
        24.000	  7.930e-003 	             	
        24.023	             	  5.080e-001 	
        24.064	  7.910e-003 	             	
        24.087	             	  5.080e-001 	
        24.128	  7.930e-003 	             	
        24.151	             	  5.080e-001 	
        24.192	  7.940e-003 	             	
        24.215	             	  5.080e-001 	
        24.256	  7.930e-003 	             	
        24.279	             	  5.090e-001 	
        24.320	  7.940e-003 	             	
        24.375	             	  5.080e-001 	
        24.384	  7.960e-003 	             	
        24.439	             	  5.090e-001 	
        24.448	  7.940e-003 	             	
        24.503	             	  5.090e-001 	
        24.512	  7.950e-003 	             	
        24.567	             	  5.080e-001 	
        24.576	  7.930e-003 	             	
        24.631	             	  5.080e-001 	
        24.672	  8.040e-003 	             	
        24.695	             	  5.080e-001 	
        24.736	  8.020e-003 	             	
        24.759	             	  5.080e-001 	
        24.800	  8.020e-003 	             	
        24.823	             	  5.080e-001 	
        24.864	  8.060e-003 	             	
        24.887	             	  5.080e-001 	
        24.928	  8.040e-003 	             	
        24.951	             	  5.080e-001 	
        24.992	  8.090e-003 	             	
        25.015	             	  5.080e-001 	
        25.056	  8.060e-003 	             	
        25.079	             	  5.080e-001 	
        25.120	  8.060e-003 	             	
        25.175	             	  5.080e-001 	
        25.184	  8.150e-003 	             	
        25.239	             	  5.080e-001 	
        25.248	  8.150e-003 	             	
        25.303	             	  5.080e-001 	
        25.312	  8.130e-003 	             	
        25.367	             	  5.080e-001 	
        25.376	  8.140e-003 	             	
        25.431	             	  5.080e-001 	
        25.472	  8.090e-003 	             	
        25.495	             	  5.080e-001 	
        25.536	  8.120e-003 	             	
        25.559	             	  5.090e-001 	
        25.600	  8.140e-003 	             	
        25.623	             	  5.080e-001 	
        25.664	  8.130e-003 	             	
        25.687	             	  5.080e-001 	
        25.728	  8.120e-003 	             	
        25.751	             	  5.080e-001 	
        25.792	  8.130e-003 	             	
        25.815	             	  5.080e-001 	
        25.856	  8.080e-003 	             	
        25.879	             	  5.080e-001 	
        25.920	  8.090e-003 	             	
        25.975	             	  5.080e-001 	
        25.984	  8.060e-003 	             	
        26.039	             	  5.080e-001 	
        26.048	  8.050e-003 	             	
        26.103	             	  5.080e-001 	
        26.112	  8.030e-003 	             	
        26.167	             	  5.080e-001 	
        26.176	  8.010e-003 	             	
        26.231	             	  5.080e-001 	
        26.272	  8.010e-003 	             	
        26.295	             	  5.080e-001 	
        26.336	  8.000e-003 	             	
        26.359	             	  5.080e-001 	
        26.400	  7.970e-003 	             	
        26.423	             	  5.080e-001 	
        26.464	  7.980e-003 	             	
        26.487	             	  5.080e-001 	
        26.528	  7.940e-003 	             	
        26.551	             	  5.080e-001 	
        26.592	  7.940e-003 	             	
        26.615	             	  5.080e-001 	
        26.656	  7.920e-003 	             	
        26.679	             	  5.080e-001 	
        26.720	  7.900e-003 	             	
        26.775	             	  5.080e-001 	
        26.784	  7.900e-003 	             	
        26.839	             	  5.080e-001 	
        26.848	  7.900e-003 	             	
        26.903	             	  5.080e-001 	
        26.912	  7.890e-003 	             	
        26.967	             	  5.080e-001 	
        26.976	  7.880e-003 	             	
        27.031	             	  5.080e-001 	
        27.072	  7.920e-003 	             	
        27.095	             	  5.080e-001 	
        27.136	  7.920e-003 	             	
        27.159	             	  5.080e-001 	
        27.200	  7.900e-003 	             	
        27.223	             	  5.080e-001 	
        27.264	  7.910e-003 	             	
        27.287	             	  5.080e-001 	
        27.328	  7.950e-003 	             	
        27.351	             	  5.080e-001 	
        27.392	  7.940e-003 	             	
        27.415	             	  5.080e-001 	
        27.456	  7.950e-003 	             	
        27.479	             	  5.080e-001 	
        27.520	  7.970e-003 	             	
        27.575	             	  5.080e-001 	
        27.584	  7.960e-003 	             	
        27.639	             	  5.080e-001 	
        27.648	  7.930e-003 	             	
        27.703	             	  5.080e-001 	
        27.712	  7.940e-003 	             	
        27.767	             	  5.080e-001 	
        27.776	  7.970e-003 	             	
        27.831	             	  5.080e-001 	
        27.872	  7.950e-003 	             	
        27.895	             	  5.080e-001 	
        27.936	  8.000e-003 	             	
        27.959	             	  5.080e-001 	
        28.000	  8.060e-003 	             	
        28.023	             	  5.080e-001 	
        28.064	  8.070e-003 	             	
        28.087	             	  5.080e-001 	
        28.128	  8.060e-003 	             	
        28.151	             	  5.080e-001 	
        28.192	  8.030e-003 	             	
        28.215	             	  5.080e-001 	
        28.256	  8.080e-003 	             	
        28.279	             	  5.080e-001 	
        28.320	  8.120e-003 	             	
        28.375	             	  5.080e-001 	
        28.384	  8.110e-003 	             	
        28.439	             	  5.080e-001 	
        28.448	  8.120e-003 	             	
        28.503	             	  5.080e-001 	
        28.512	  8.100e-003 	             	
        28.567	             	  5.080e-001 	
        28.576	  8.110e-003 	             	
        28.631	             	  5.080e-001 	
        28.672	  8.120e-003 	             	
        28.695	             	  5.080e-001 	
        28.736	  8.120e-003 	             	
        28.759	             	  5.080e-001 	
        28.800	  8.100e-003 	             	
        28.823	             	  5.080e-001 	
        28.864	  8.110e-003 	             	
        28.887	             	  5.080e-001 	
        28.928	  8.100e-003 	             	
        28.951	             	  5.080e-001 	
        28.992	  8.050e-003 	             	
        29.015	             	  5.080e-001 	
        29.056	  8.030e-003 	             	
        29.078	             	  5.080e-001 	
        29.120	  8.040e-003 	             	
        29.175	             	  5.080e-001 	
        29.184	  8.020e-003 	             	
        29.239	             	  5.080e-001 	
        29.248	  8.010e-003 	             	
        29.303	             	  5.080e-001 	
        29.312	  8.000e-003 	             	
        29.367	             	  5.090e-001 	
        29.376	  8.000e-003 	             	
        29.431	             	  5.090e-001 	
        29.472	  8.000e-003 	             	
        29.495	             	  5.090e-001 	
        29.536	  8.000e-003 	             	
        29.559	             	  5.090e-001 	
        29.600	  8.020e-003 	             	
        29.623	             	  5.080e-001 	
        29.664	  8.060e-003 	             	
        29.687	             	  5.080e-001 	
        29.728	  8.050e-003 	             	
        29.750	             	  5.080e-001 	
        29.792	  8.080e-003 	             	
        29.815	             	  5.080e-001 	
        29.856	  8.060e-003 	             	
        29.879	             	  5.080e-001 	
        29.920	  8.060e-003 	             	
        29.975	             	  5.080e-001 	
        29.984	  8.100e-003 	             	
        30.039	             	  5.080e-001 	
        30.048	  8.110e-003 	             	
        30.103	             	  5.090e-001 	
        30.112	  8.100e-003 	             	
        30.166	             	  5.090e-001 	
        30.176	  8.120e-003 	             	
        30.230	             	  5.090e-001 	
        30.272	  8.110e-003 	             	
        30.294	             	  5.090e-001 	
        30.336	  8.110e-003 	             	
        30.358	             	  5.090e-001 	
        30.400	  8.130e-003 	             	
        30.423	             	  5.090e-001 	
        30.464	  8.100e-003 	             	
        30.486	             	  5.090e-001 	
        30.528	  8.140e-003 	             	
        30.550	             	  5.090e-001 	
        30.592	  8.130e-003 	             	
        30.614	             	  5.090e-001 	
        30.656	  8.160e-003 	             	
        30.678	             	  5.090e-001 	
        30.720	  8.200e-003 	             	
        30.775	             	  5.090e-001 	
        30.784	  8.230e-003 	             	
        30.839	             	  5.090e-001 	
        30.848	  8.250e-003 	             	
        30.902	             	  5.090e-001 	
        30.912	  8.170e-003 	             	
        30.966	             	  5.090e-001 	
        30.976	  8.190e-003 	             	
        31.030	             	  5.080e-001 	
        31.072	  8.160e-003 	             	
        31.094	             	  5.080e-001 	
        31.136	  8.220e-003 	             	
        31.158	             	  5.080e-001 	
        31.200	  8.150e-003 	             	
        31.222	             	  5.080e-001 	
        31.264	  8.080e-003 	             	
        31.286	             	  5.080e-001 	
        31.328	  8.090e-003 	             	
        31.350	             	  5.080e-001 	
        31.392	  8.040e-003 	             	
        31.414	             	  5.080e-001 	
        31.456	  8.010e-003 	             	
        31.478	             	  5.080e-001 	
        31.520	  8.020e-003 	             	
        31.574	             	  5.080e-001 	
        31.584	  7.960e-003 	             	
        31.638	             	  5.080e-001 	
        31.648	  7.990e-003 	             	
        31.702	             	  5.080e-001 	
        31.712	  7.980e-003 	             	
        31.766	             	  5.080e-001 	
        31.776	  7.990e-003 	             	
        31.830	             	  5.080e-001 	
        31.840	  7.970e-003 	             	
        31.894	             	  5.080e-001 	
        31.936	  7.980e-003 	             	
        31.958	             	  5.080e-001 	
        32.000	  8.000e-003 	             	
        32.022	             	  5.080e-001 	
        32.064	  8.000e-003 	             	
        32.086	             	  5.080e-001 	
        32.128	  8.000e-003 	             	
        32.150	             	  5.080e-001 	
        32.192	  8.000e-003 	             	
        32.214	             	  5.080e-001 	
        32.256	  7.940e-003 	             	
        32.278	             	  5.080e-001 	
        32.320	  7.930e-003 	             	
        32.374	             	  5.080e-001 	
        32.384	  7.910e-003 	             	
        32.438	             	  5.080e-001 	
        32.448	  7.960e-003 	             	
        32.502	             	  5.080e-001 	
        32.512	  7.980e-003 	             	
        32.566	             	  5.080e-001 	
        32.576	  7.980e-003 	             	
        32.630	             	  5.080e-001 	
        32.640	  7.980e-003 	             	
        32.694	             	  5.080e-001 	
        32.736	  8.000e-003 	             	
        32.758	             	  5.080e-001 	
        32.800	  8.020e-003 	             	
        32.822	             	  5.080e-001 	
        32.864	  8.000e-003 	             	
        32.886	             	  5.080e-001 	
        32.928	  8.040e-003 	             	
        32.950	             	  5.080e-001 	
        32.992	  8.030e-003 	             	
        33.014	             	  5.080e-001 	
        33.056	  8.030e-003 	             	
        33.078	             	  5.080e-001 	
        33.120	  8.050e-003 	             	
        33.174	             	  5.080e-001 	
        33.184	  8.070e-003 	             	
        33.238	             	  5.080e-001 	
        33.248	  8.090e-003 	             	
        33.302	             	  5.080e-001 	
        33.312	  8.140e-003 	             	
        33.366	             	  5.080e-001 	
        33.376	  8.160e-003 	             	
        33.430	             	  5.080e-001 	
        33.440	  8.160e-003 	             	
        33.494	             	  5.080e-001 	
        33.536	  8.160e-003 	             	
        33.558	             	  5.080e-001 	
        33.600	  8.170e-003 	             	
        33.622	             	  5.080e-001 	
        33.664	  8.200e-003 	             	
        33.687	             	  5.080e-001 	
        33.728	  8.200e-003 	             	
        33.750	             	  5.080e-001 	
        33.792	  8.180e-003 	             	
        33.814	             	  5.080e-001 	
        33.856	  8.180e-003 	             	
        33.878	             	  5.080e-001 	
        33.920	  8.190e-003 	             	
        33.974	             	  5.080e-001 	
        33.984	  8.180e-003 	             	
        34.038	             	  5.080e-001 	
        34.048	  8.190e-003 	             	
        34.102	             	  5.080e-001 	
        34.112	  8.210e-003 	             	
        34.166	             	  5.080e-001 	
        34.176	  8.210e-003 	             	
        34.230	             	  5.080e-001 	
        34.240	  8.130e-003 	             	
        34.294	             	  5.080e-001 	
        34.336	  8.150e-003 	             	
        34.358	             	  5.080e-001 	
        34.400	  8.100e-003 	             	
        34.422	             	  5.080e-001 	
        34.464	  8.110e-003 	             	
        34.486	             	  5.080e-001 	
        34.528	  8.070e-003 	             	
        34.550	             	  5.080e-001 	
        34.592	  8.080e-003 	             	
        34.614	             	  5.080e-001 	
        34.656	  8.080e-003 	             	
        34.678	             	  5.080e-001 	
        34.720	  8.060e-003 	             	
        34.774	             	  5.080e-001 	
        34.784	  8.060e-003 	             	
        34.838	             	  5.080e-001 	
        34.848	  8.100e-003 	             	
        34.902	             	  5.080e-001 	
        34.912	  8.040e-003 	             	
        34.966	             	  5.080e-001 	
        34.976	  8.120e-003 	             	
        35.030	             	  5.080e-001 	
        35.040	  8.100e-003 	             	
        35.094	             	  5.080e-001 	
        35.136	  8.120e-003 	             	
        35.158	             	  5.080e-001 	
        35.200	  8.140e-003 	             	
        35.222	             	  5.080e-001 	
        35.264	  8.140e-003 	             	
        35.286	             	  5.080e-001 	
        35.328	  8.160e-003 	             	
        35.350	             	  5.080e-001 	
        35.392	  8.160e-003 	             	
        35.414	             	  5.080e-001 	
        35.456	  8.180e-003 	             	
        35.478	             	  5.080e-001 	
        35.520	  8.200e-003 	             	
        35.574	             	  5.080e-001 	
        35.584	  8.180e-003 	             	
        35.638	             	  5.080e-001 	
        35.648	  8.190e-003 	             	
        35.702	             	  5.080e-001 	
        35.712	  8.230e-003 	             	
        35.766	             	  5.090e-001 	
        35.776	  8.230e-003 	             	
        35.830	             	  5.090e-001 	
        35.840	  8.220e-003 	             	
        35.894	             	  5.090e-001 	
        35.935	  8.260e-003 	             	
        35.958	             	  5.090e-001 	
        36.000	  8.280e-003 	             	
        36.022	             	  5.090e-001 	
        36.063	  8.280e-003 	             	
        36.086	             	  5.090e-001 	
        36.128	  8.290e-003 	             	
        36.150	             	  5.090e-001 	
        36.192	  8.270e-003 	             	
        36.214	             	  5.090e-001 	
        36.256	  8.270e-003 	             	
        36.278	             	  5.080e-001 	
        36.320	  8.250e-003 	             	
        36.375	             	  5.080e-001 	
        36.385	  8.220e-003 	             	
        36.439	             	  5.080e-001 	
        36.449	  8.230e-003 	             	
        36.503	             	  5.080e-001 	
        36.512	  8.180e-003 	             	
        36.567	             	  5.080e-001 	
        36.577	  8.210e-003 	             	
        36.631	             	  5.080e-001 	
        36.640	  8.150e-003 	             	
        36.695	             	  5.080e-001 	
        36.737	  8.220e-003 	             	
        36.759	             	  5.080e-001 	
        36.800	  8.210e-003 	             	
        36.823	             	  5.080e-001 	
        36.865	  8.120e-003 	             	
        36.887	             	  5.080e-001 	
        36.928	  8.020e-003 	             	
        36.951	             	  5.080e-001 	
        36.992	  8.060e-003 	             	
        37.015	             	  5.090e-001 	
        37.056	  8.020e-003 	             	
        37.079	             	  5.080e-001 	
        37.120	  8.040e-003 	             	
        37.143	             	  5.080e-001 	
        37.185	  7.980e-003 	             	
        37.239	             	  5.080e-001 	
        37.248	  8.030e-003 	             	
        37.303	             	  5.080e-001 	
        37.312	  7.990e-003 	             	
        37.367	             	  5.080e-001 	
        37.376	  7.970e-003 	             	
        37.431	             	  5.080e-001 	
        37.440	  7.950e-003 	             	
        37.495	             	  5.080e-001 	
        37.536	  7.950e-003 	             	
        37.559	             	  5.080e-001 	
        37.600	  7.980e-003 	             	
        37.623	             	  5.090e-001 	
        37.665	  7.960e-003 	             	
        37.687	             	  5.090e-001 	
        37.728	  7.940e-003 	             	
        37.751	             	  5.080e-001 	
        37.792	  7.900e-003 	             	
        37.815	             	  5.080e-001 	
        37.856	  7.910e-003 	             	
        37.879	             	  5.090e-001 	
        37.920	  7.910e-003 	             	
        37.975	             	  5.090e-001 	
        37.984	  7.900e-003 	             	
        38.039	             	  5.090e-001 	
        38.048	  7.930e-003 	             	
        38.103	             	  5.090e-001 	
        38.112	  7.990e-003 	             	
        38.167	             	  5.080e-001 	
        38.176	  8.000e-003 	             	
        38.231	             	  5.080e-001 	
        38.240	  8.030e-003 	             	
        38.295	             	  5.080e-001 	
        38.336	  8.040e-003 	             	
        38.359	             	  5.080e-001 	
        38.400	  8.100e-003 	             	
        38.423	             	  5.080e-001 	
        38.464	  8.110e-003 	             	
        38.487	             	  5.080e-001 	
        38.529	  8.170e-003 	             	
        38.551	             	  5.080e-001 	
        38.592	  8.190e-003 	             	
        38.615	             	  5.080e-001 	
        38.656	  8.230e-003 	             	
        38.679	             	  5.080e-001 	
        38.720	  8.210e-003 	             	
        38.743	             	  5.080e-001 	
        38.784	  8.270e-003 	             	
        38.839	             	  5.080e-001 	
        38.848	  8.280e-003 	             	
        38.903	             	  5.080e-001 	
        38.912	  8.280e-003 	             	
        38.967	             	  5.080e-001 	
        38.976	  8.310e-003 	             	
        39.031	             	  5.080e-001 	
        39.040	  8.300e-003 	             	
        39.095	             	  5.080e-001 	
        39.136	  8.270e-003 	             	
        39.159	             	  5.080e-001 	
        39.200	  8.340e-003 	             	
        39.223	             	  5.090e-001 	
        39.264	  8.290e-003 	             	
        39.287	             	  5.090e-001 	
        39.328	  8.280e-003 	             	
        39.351	             	  5.090e-001 	
        39.392	  8.330e-003 	             	
        39.415	             	  5.090e-001 	
        39.456	  8.340e-003 	             	
        39.479	             	  5.090e-001 	
        39.520	  8.300e-003 	             	
        39.543	             	  5.090e-001 	
        39.584	  8.240e-003 	             	
        39.639	             	  5.090e-001 	
        39.648	  8.200e-003 	             	
        39.703	             	  5.090e-001 	
        39.712	  8.160e-003 	             	
        39.767	             	  5.090e-001 	
        39.776	  8.160e-003 	             	
        39.831	             	  5.090e-001 	
        39.840	  8.170e-003 	             	
        39.895	             	  5.090e-001 	
        39.936	  8.150e-003 	             	
        39.959	             	  5.090e-001 	
        40.000	  8.140e-003 	             	
        40.023	             	  5.090e-001 	
        40.064	  8.180e-003 	             	
        40.087	             	  5.090e-001 	
        40.128	  8.150e-003 	             	
        40.151	             	  5.090e-001 	
        40.192	  8.150e-003 	             	
        40.215	             	  5.090e-001 	
        40.256	  8.150e-003 	             	
        40.279	             	  5.090e-001 	
        40.320	  8.110e-003 	             	
        40.343	             	  5.090e-001 	
        40.384	  8.150e-003 	             	
        40.439	             	  5.090e-001 	
        40.448	  8.150e-003 	             	
        40.503	             	  5.090e-001 	
        40.512	  8.200e-003 	             	
        40.567	             	  5.090e-001 	
        40.576	  8.180e-003 	             	
        40.631	             	  5.090e-001 	
        40.640	  8.210e-003 	             	
        40.695	             	  5.090e-001 	
        40.736	  8.200e-003 	             	
        40.759	             	  5.090e-001 	
        40.800	  8.240e-003 	             	
        40.823	             	  5.090e-001 	
        40.864	  8.260e-003 	             	
        40.887	             	  5.090e-001 	
        40.928	  8.300e-003 	             	
        40.951	             	  5.090e-001 	
        40.992	  8.370e-003 	             	
        41.015	             	  5.090e-001 	
        41.056	  8.410e-003 	             	
        41.079	             	  5.090e-001 	
        41.120	  8.410e-003 	             	
        41.143	             	  5.090e-001 	
        41.184	  8.450e-003 	             	
        41.239	             	  5.090e-001 	
        41.248	  8.420e-003 	             	
        41.303	             	  5.090e-001 	
        41.312	  8.450e-003 	             	
        41.367	             	  5.090e-001 	
        41.376	  8.450e-003 	             	
        41.431	             	  5.090e-001 	
        41.440	  8.420e-003 	             	
        41.495	             	  5.090e-001 	
        41.536	  8.390e-003 	             	
        41.559	             	  5.090e-001 	
        41.600	  8.340e-003 	             	
        41.623	             	  5.090e-001 	
        41.664	  8.340e-003 	             	
        41.687	             	  5.090e-001 	
        41.728	  8.300e-003 	             	
        41.751	             	  5.090e-001 	
        41.792	  8.250e-003 	             	
        41.815	             	  5.090e-001 	
        41.856	  8.250e-003 	             	
        41.879	             	  5.090e-001 	
        41.920	  8.240e-003 	             	
        41.943	             	  5.090e-001 	
        41.984	  8.190e-003 	             	
        42.039	             	  5.090e-001 	
        42.048	  8.180e-003 	             	
        42.103	             	  5.090e-001 	
        42.112	  8.150e-003 	             	
        42.167	             	  5.090e-001 	
        42.176	  8.130e-003 	             	
        42.231	             	  5.090e-001 	
        42.240	  8.110e-003 	             	
        42.295	             	  5.090e-001 	
        42.336	  8.100e-003 	             	
        42.359	             	  5.090e-001 	
        42.400	  8.100e-003 	             	
        42.423	             	  5.090e-001 	
        42.464	  8.020e-003 	             	
        42.487	             	  5.080e-001 	
        42.528	  7.990e-003 	             	
        42.551	             	  5.080e-001 	
        42.592	  7.960e-003 	             	
        42.615	             	  5.080e-001 	
        42.656	  8.000e-003 	             	
        42.679	             	  5.080e-001 	
        42.720	  8.030e-003 	             	
        42.743	             	  5.080e-001 	
        42.784	  8.070e-003 	             	
        42.839	             	  5.080e-001 	
        42.848	  8.070e-003 	             	
        42.903	             	  5.080e-001 	
        42.912	  8.060e-003 	             	
        42.967	             	  5.080e-001 	
        42.976	  8.010e-003 	             	
        43.031	             	  5.090e-001 	
        43.040	  7.940e-003 	             	
        43.095	             	  5.090e-001 	
        43.136	  7.890e-003 	             	
        43.159	             	  5.080e-001 	
        43.200	  7.930e-003 	             	
        43.223	             	  5.080e-001 	
        43.264	  7.940e-003 	             	
        43.287	             	  5.090e-001 	
        43.328	  8.000e-003 	             	
        43.351	             	  5.090e-001 	
        43.392	  8.020e-003 	             	
        43.415	             	  5.090e-001 	
        43.456	  8.040e-003 	             	
        43.479	             	  5.090e-001 	
        43.520	  8.080e-003 	             	
        43.543	             	  5.090e-001 	
        43.584	  8.100e-003 	             	
        43.639	             	  5.090e-001 	
        43.648	  8.180e-003 	             	
        43.703	             	  5.090e-001 	
        43.712	  8.190e-003 	             	
        43.767	             	  5.090e-001 	
        43.776	  8.230e-003 	             	
        43.831	             	  5.090e-001 	
        43.840	  8.300e-003 	             	
        43.895	             	  5.090e-001 	
        43.904	  8.290e-003 	             	
        43.959	             	  5.090e-001 	
        44.000	  8.330e-003 	             	
        44.023	             	  5.090e-001 	
        44.064	  8.360e-003 	             	
        44.087	             	  5.090e-001 	
        44.128	  8.360e-003 	             	
        44.151	             	  5.090e-001 	
        44.192	  8.360e-003 	             	
        44.215	             	  5.090e-001 	
        44.256	  8.370e-003 	             	
        44.279	             	  5.090e-001 	
        44.320	  8.350e-003 	             	
        44.343	             	  5.090e-001 	
        44.384	  8.400e-003 	             	
        44.439	             	  5.090e-001 	
        44.448	  8.400e-003 	             	
        44.503	             	  5.090e-001 	
        44.512	  8.410e-003 	             	
        44.567	             	  5.090e-001 	
        44.576	  8.440e-003 	             	
        44.631	             	  5.090e-001 	
        44.640	  8.420e-003 	             	
        44.695	             	  5.090e-001 	
        44.704	  8.410e-003 	             	
        44.759	             	  5.090e-001 	
        44.800	  8.480e-003 	             	
        44.823	             	  5.090e-001 	
        44.864	  8.520e-003 	             	
        44.887	             	  5.090e-001 	
        44.928	  8.370e-003 	             	
        44.951	             	  5.080e-001 	
        44.992	  8.340e-003 	             	
        45.015	             	  5.080e-001 	
        45.056	  8.240e-003 	             	
        45.079	             	  5.080e-001 	
        45.120	  8.220e-003 	             	
        45.143	             	  5.080e-001 	
        45.184	  8.190e-003 	             	
        45.239	             	  5.090e-001 	
        45.248	  8.240e-003 	             	
        45.303	             	  5.090e-001 	
        45.312	  8.200e-003 	             	
        45.367	             	  5.090e-001 	
        45.376	  8.230e-003 	             	
        45.431	             	  5.090e-001 	
        45.440	  8.260e-003 	             	
        45.495	             	  5.090e-001 	
        45.504	  8.220e-003 	             	
        45.559	             	  5.090e-001 	
        45.600	  8.220e-003 	             	
        45.623	             	  5.090e-001 	
        45.664	  8.220e-003 	             	
        45.687	             	  5.080e-001 	
        45.728	  8.280e-003 	             	
        45.751	             	  5.080e-001 	
        45.792	  8.300e-003 	             	
        45.815	             	  5.080e-001 	
        45.856	  8.370e-003 	             	
        45.879	             	  5.080e-001 	
        45.920	  8.370e-003 	             	
        45.943	             	  5.080e-001 	
        45.984	  8.370e-003 	             	
        46.039	             	  5.080e-001 	
        46.048	  8.390e-003 	             	
        46.103	             	  5.080e-001 	
        46.112	  8.400e-003 	             	
        46.167	             	  5.080e-001 	
        46.176	  8.420e-003 	             	
        46.231	             	  5.090e-001 	
        46.240	  8.460e-003 	             	
        46.295	             	  5.090e-001 	
        46.304	  8.540e-003 	             	
        46.359	             	  5.080e-001 	
        46.400	  8.530e-003 	             	
        46.423	             	  5.090e-001 	
        46.464	  8.550e-003 	             	
        46.487	             	  5.090e-001 	
        46.528	  8.610e-003 	             	
        46.551	             	  5.090e-001 	
        46.592	  8.650e-003 	             	
        46.615	             	  5.090e-001 	
        46.656	  8.680e-003 	             	
        46.679	             	  5.090e-001 	
        46.720	  8.660e-003 	             	
        46.743	             	  5.080e-001 	
        46.784	  8.660e-003 	             	
        46.839	             	  5.080e-001 	
        46.848	  8.650e-003 	             	
        46.903	             	  5.090e-001 	
        46.912	  8.560e-003 	             	
        46.967	             	  5.090e-001 	
        46.976	  8.450e-003 	             	
        47.031	             	  5.090e-001 	
        47.040	  8.440e-003 	             	
        47.094	             	  5.090e-001 	
        47.104	  8.420e-003 	             	
        47.159	             	  5.090e-001 	
        47.200	  8.360e-003 	             	
        47.222	             	  5.080e-001 	
        47.264	  8.330e-003 	             	
        47.287	             	  5.080e-001 	
        47.328	  8.320e-003 	             	
        47.351	             	  5.080e-001 	
        47.392	  8.240e-003 	             	
        47.415	             	  5.080e-001 	
        47.456	  8.240e-003 	             	
        47.479	             	  5.090e-001 	
        47.520	  8.240e-003 	             	
        47.543	             	  5.090e-001 	
        47.584	  8.220e-003 	             	
        47.639	             	  5.090e-001 	
        47.648	  8.150e-003 	             	
        47.703	             	  5.090e-001 	
        47.712	  8.160e-003 	             	
        47.766	             	  5.090e-001 	
        47.776	  8.160e-003 	             	
        47.830	             	  5.090e-001 	
        47.840	  8.210e-003 	             	
        47.895	             	  5.080e-001 	
        47.904	  8.240e-003 	             	
        47.958	             	  5.080e-001 	
        48.000	  8.270e-003 	             	
        48.023	             	  5.080e-001 	
        48.064	  8.230e-003 	             	
        48.086	             	  5.080e-001 	
        48.128	  8.050e-003 	             	
        48.151	             	  5.080e-001 	
        48.192	  8.000e-003 	             	
        48.214	             	  5.090e-001 	
        48.256	  8.000e-003 	             	
        48.278	             	  5.090e-001 	
        48.320	  8.050e-003 	             	
        48.342	             	  5.090e-001 	
        48.384	  8.040e-003 	             	
        48.438	             	  5.090e-001 	
        48.448	  8.060e-003 	             	
        48.503	             	  5.090e-001 	
        48.512	  8.080e-003 	             	
        48.566	             	  5.090e-001 	
        48.576	  8.110e-003 	             	
        48.630	             	  5.090e-001 	
        48.640	  8.170e-003 	             	
        48.694	             	  5.090e-001 	
        48.704	  8.200e-003 	             	
        48.758	             	  5.090e-001 	
        48.800	  8.290e-003 	             	
        48.822	             	  5.090e-001 	
        48.864	  8.330e-003 	             	
        48.886	             	  5.090e-001 	
        48.928	  8.360e-003 	             	
        48.950	             	  5.090e-001 	
        48.992	  8.390e-003 	             	
        49.014	             	  5.080e-001 	
        49.056	  8.360e-003 	             	
        49.078	             	  5.090e-001 	
        49.120	  8.300e-003 	             	
        49.142	             	  5.080e-001 	
        49.184	  8.390e-003 	             	
        49.238	             	  5.080e-001 	
        49.248	  8.420e-003 	             	
        49.302	             	  5.090e-001 	
        49.312	  8.480e-003 	             	
        49.366	             	  5.090e-001 	
        49.376	  8.520e-003 	             	
        49.431	             	  5.090e-001 	
        49.440	  8.590e-003 	             	
        49.494	             	  5.090e-001 	
        49.504	  8.630e-003 	             	
        49.558	             	  5.090e-001 	
        49.600	  8.630e-003 	             	
        49.622	             	  5.090e-001 	
        49.664	  8.660e-003 	             	
        49.686	             	  5.090e-001 	
        49.728	  8.660e-003 	             	
        49.750	             	  5.090e-001 	
        49.792	  8.660e-003 	             	
        49.814	             	  5.090e-001 	
        49.856	  8.650e-003 	             	
        49.878	             	  5.080e-001 	
        49.920	  8.660e-003 	             	
        49.942	             	  5.090e-001 	
        49.984	  8.650e-003 	             	
        50.006	             	  5.090e-001 	
        50.048	  8.630e-003 	             	
        50.102	             	  5.090e-001 	
        50.112	  8.680e-003 	             	
        50.166	             	  5.090e-001 	
        50.176	  8.640e-003 	             	
        50.230	             	  5.090e-001 	
        50.240	  8.480e-003 	             	
        50.294	             	  5.090e-001 	
        50.304	  8.420e-003 	             	
        50.358	             	  5.090e-001 	
        50.400	  8.340e-003 	             	
        50.422	             	  5.090e-001 	
        50.464	  8.310e-003 	             	
        50.486	             	  5.090e-001 	
        50.528	  8.290e-003 	             	
        50.550	             	  5.090e-001 	
        50.592	  8.350e-003 	             	
        50.614	             	  5.090e-001 	
        50.656	  8.340e-003 	             	
        50.678	             	  5.090e-001 	
        50.720	  8.280e-003 	             	
        50.742	             	  5.090e-001 	
        50.784	  8.390e-003 	             	
        50.806	             	  5.090e-001 	
        50.848	  8.520e-003 	             	
        50.902	             	  5.090e-001 	
        50.912	  8.560e-003 	             	
        50.966	             	  5.090e-001 	
        50.976	  8.540e-003 	             	
        51.030	             	  5.090e-001 	
        51.040	  8.550e-003 	             	
        51.094	             	  5.090e-001 	
        51.104	  8.570e-003 	             	
        51.158	             	  5.090e-001 	
        51.200	  8.630e-003 	             	
        51.222	             	  5.080e-001 	
        51.264	  8.630e-003 	             	
        51.286	             	  5.080e-001 	
        51.328	  8.730e-003 	             	
        51.350	             	  5.080e-001 	
        51.392	  8.760e-003 	             	
        51.414	             	  5.090e-001 	
        51.456	  8.830e-003 	             	
        51.478	             	  5.090e-001 	
        51.520	  8.820e-003 	             	
        51.542	             	  5.080e-001 	
        51.584	  8.900e-003 	             	
        51.606	             	  5.090e-001 	
        51.648	  8.920e-003 	             	
        51.702	             	  5.090e-001 	
        51.712	  8.950e-003 	             	
        51.766	             	  5.090e-001 	
        51.776	  8.950e-003 	             	
        51.830	             	  5.090e-001 	
        51.840	  8.930e-003 	             	
        51.894	             	  5.090e-001 	
        51.904	  9.020e-003 	             	
        51.958	             	  5.090e-001 	
        52.000	  8.970e-003 	             	
        52.022	             	  5.090e-001 	
        52.064	  8.950e-003 	             	
        52.086	             	  5.090e-001 	
        52.128	  8.850e-003 	             	
        52.150	             	  5.090e-001 	
        52.192	  8.840e-003 	             	
        52.214	             	  5.090e-001 	
        52.256	  8.790e-003 	             	
        52.278	             	  5.090e-001 	
        52.320	  8.790e-003 	             	
        52.342	             	  5.090e-001 	
        52.384	  8.710e-003 	             	
        52.406	             	  5.090e-001 	
        52.448	  8.650e-003 	             	
        52.502	             	  5.090e-001 	
        52.512	  8.630e-003 	             	
        52.566	             	  5.090e-001 	
        52.576	  8.580e-003 	             	
        52.630	             	  5.090e-001 	
        52.640	  8.580e-003 	             	
        52.694	             	  5.090e-001 	
        52.704	  8.520e-003 	             	
        52.758	             	  5.090e-001 	
        52.800	  8.390e-003 	             	
        52.822	             	  5.090e-001 	
        52.864	  8.190e-003 	             	
        52.886	             	  5.090e-001 	
        52.928	  8.180e-003 	             	
        52.950	             	  5.090e-001 	
        52.992	  8.270e-003 	             	
        53.014	             	  5.090e-001 	
        53.056	  8.340e-003 	             	
        53.078	             	  5.080e-001 	
        53.120	  8.360e-003 	             	
        53.142	             	  5.090e-001 	
        53.184	  8.270e-003 	             	
        53.206	             	  5.090e-001 	
        53.248	  8.240e-003 	             	
        53.302	             	  5.090e-001 	
        53.312	  8.260e-003 	             	
        53.366	             	  5.090e-001 	
        53.376	  8.230e-003 	             	
        53.430	             	  5.090e-001 	
        53.440	  8.240e-003 	             	
        53.494	             	  5.090e-001 	
        53.504	  8.260e-003 	             	
        53.558	             	  5.090e-001 	
        53.600	  8.210e-003 	             	
        53.622	             	  5.090e-001 	
        53.664	  8.260e-003 	             	
        53.686	             	  5.090e-001 	
        53.728	  8.310e-003 	             	
        53.750	             	  5.080e-001 	
        53.792	  8.300e-003 	             	
        53.814	             	  5.090e-001 	
        53.857	  8.360e-003 	             	
        53.879	             	  5.090e-001 	
        53.921	  8.400e-003 	             	
        53.943	             	  5.090e-001 	
        53.984	  8.410e-003 	             	
        54.007	             	  5.090e-001 	
        54.049	  8.450e-003 	             	
        54.103	             	  5.090e-001 	
        54.113	  8.430e-003 	             	
        54.167	             	  5.090e-001 	
        54.177	  8.370e-003 	             	
        54.231	             	  5.080e-001 	
        54.241	  8.400e-003 	             	
        54.295	             	  5.080e-001 	
        54.304	  8.450e-003 	             	
        54.359	             	  5.080e-001 	
        54.401	  8.490e-003 	             	
        54.423	             	  5.090e-001 	
        54.465	  8.520e-003 	             	
        54.487	             	  5.090e-001 	
        54.528	  8.580e-003 	             	
        54.551	             	  5.090e-001 	
        54.592	  8.640e-003 	             	
        54.615	             	  5.090e-001 	
        54.656	  8.790e-003 	             	
        54.679	             	  5.090e-001 	
        54.720	  8.830e-003 	             	
        54.743	             	  5.090e-001 	
        54.785	  8.790e-003 	             	
        54.807	             	  5.090e-001 	
        54.848	  8.830e-003 	             	
        54.903	             	  5.090e-001 	
        54.913	  8.880e-003 	             	
        54.967	             	  5.090e-001 	
        54.976	  8.840e-003 	             	
        55.031	             	  5.090e-001 	
        55.040	  8.830e-003 	             	
        55.095	             	  5.090e-001 	
        55.104	  8.820e-003 	             	
        55.159	             	  5.090e-001 	
        55.200	  8.860e-003 	             	
        55.223	             	  5.090e-001 	
        55.264	  8.820e-003 	             	
        55.287	             	  5.090e-001 	
        55.328	  8.830e-003 	             	
        55.351	             	  5.090e-001 	
        55.392	  8.840e-003 	             	
        55.415	             	  5.090e-001 	
        55.456	  8.840e-003 	             	
        55.479	             	  5.090e-001 	
        55.520	  8.800e-003 	             	
        55.543	             	  5.090e-001 	
        55.584	  8.860e-003 	             	
        55.607	             	  5.090e-001 	
        55.649	  8.820e-003 	             	
        55.703	             	  5.090e-001 	
        55.713	  8.830e-003 	             	
        55.767	             	  5.090e-001 	
        55.776	  8.830e-003 	             	
        55.831	             	  5.090e-001 	
        55.840	  8.890e-003 	             	
        55.895	             	  5.090e-001 	
        55.904	  8.920e-003 	             	
        55.959	             	  5.090e-001 	
        56.000	  8.950e-003 	             	
        56.023	             	  5.090e-001 	
        56.065	  9.030e-003 	             	
        56.087	             	  5.090e-001 	
        56.128	  9.060e-003 	             	
        56.151	             	  5.090e-001 	
        56.192	  9.000e-003 	             	
        56.215	             	  5.090e-001 	
        56.256	  9.050e-003 	             	
        56.279	             	  5.090e-001 	
        56.320	  9.060e-003 	             	
        56.343	             	  5.090e-001 	
        56.384	  9.060e-003 	             	
        56.407	             	  5.090e-001 	
        56.448	  9.060e-003 	             	
        56.503	             	  5.090e-001 	
        56.512	  8.830e-003 	             	
        56.567	             	  5.090e-001 	
        56.576	  8.740e-003 	             	
        56.631	             	  5.090e-001 	
        56.640	  8.640e-003 	             	
        56.695	             	  5.090e-001 	
        56.704	  8.640e-003 	             	
        56.759	             	  5.090e-001 	
        56.768	  8.720e-003 	             	
        56.823	             	  5.090e-001 	
        56.864	  8.710e-003 	             	
        56.887	             	  5.090e-001 	
        56.928	  8.710e-003 	             	
        56.951	             	  5.090e-001 	
        56.992	  8.690e-003 	             	
        57.015	             	  5.090e-001 	
        57.056	  8.710e-003 	             	
        57.079	             	  5.090e-001 	
        57.120	  8.680e-003 	             	
        57.143	             	  5.090e-001 	
        57.184	  8.770e-003 	             	
        57.207	             	  5.090e-001 	
        57.248	  8.920e-003 	             	
        57.303	             	  5.090e-001 	
        57.312	  8.930e-003 	             	
        57.367	             	  5.090e-001 	
        57.376	  8.970e-003 	             	
        57.431	             	  5.090e-001 	
        57.440	  9.010e-003 	             	
        57.495	             	  5.090e-001 	
        57.504	  9.070e-003 	             	
        57.559	             	  5.090e-001 	
        57.568	  9.030e-003 	             	
        57.623	             	  5.090e-001 	
        57.664	  9.120e-003 	             	
        57.687	             	  5.090e-001 	
        57.728	  9.210e-003 	             	
        57.751	             	  5.090e-001 	
        57.792	  9.270e-003 	             	
        57.815	             	  5.090e-001 	
        57.856	  9.280e-003 	             	
        57.879	             	  5.090e-001 	
        57.920	  9.270e-003 	             	
        57.943	             	  5.090e-001 	
        57.984	  9.290e-003 	             	
        58.007	             	  5.090e-001 	
        58.048	  9.310e-003 	             	
        58.103	             	  5.090e-001 	
        58.112	  9.310e-003 	             	
        58.167	             	  5.090e-001 	
        58.176	  9.360e-003 	             	
        58.231	             	  5.090e-001 	
        58.240	  9.350e-003 	             	
        58.295	             	  5.090e-001 	
        58.304	  9.340e-003 	             	
        58.359	             	  5.090e-001 	
        58.368	  9.350e-003 	             	
        58.423	             	  5.090e-001 	
        58.464	  9.320e-003 	             	
        58.487	             	  5.090e-001 	
        58.528	  9.320e-003 	             	
        58.551	             	  5.090e-001 	
        58.592	  9.250e-003 	             	
        58.615	             	  5.090e-001 	
        58.656	  9.240e-003 	             	
        58.679	             	  5.090e-001 	
        58.720	  9.110e-003 	             	
        58.743	             	  5.090e-001 	
        58.784	  8.970e-003 	             	
        58.807	             	  5.090e-001 	
        58.848	  8.920e-003 	             	
        58.903	             	  5.090e-001 	
        58.912	  8.900e-003 	             	
        58.967	             	  5.090e-001 	
        58.976	  8.840e-003 	             	
        59.031	             	  5.090e-001 	
        59.040	  8.840e-003 	             	
        59.095	             	  5.090e-001 	
        59.104	  8.760e-003 	             	
        59.159	             	  5.090e-001 	
        59.168	  8.680e-003 	             	
        59.223	             	  5.090e-001 	
        59.264	  8.470e-003 	             	
        59.287	             	  5.090e-001 	
        59.328	  8.490e-003 	             	
        59.351	             	  5.090e-001 	
        59.392	  8.550e-003 	             	
        59.415	             	  5.090e-001 	
        59.456	  8.590e-003 	             	
        59.479	             	  5.090e-001 	
        59.520	  8.660e-003 	             	
        59.543	             	  5.090e-001 	
        59.584	  8.690e-003 	             	
        59.607	             	  5.090e-001 	
        59.648	  8.590e-003 	             	
        59.703	             	  5.090e-001 	
        59.712	  8.600e-003 	             	
        59.767	             	  5.090e-001 	
        59.776	  8.580e-003 	             	
        59.831	             	  5.090e-001 	
        59.840	  8.570e-003 	             	
        59.895	             	  5.090e-001 	
        59.904	  8.590e-003 	             	
        59.959	             	  5.090e-001 	
        59.968	  8.390e-003 	             	
        60.023	             	  5.090e-001 	
        60.064	  8.290e-003 	             	
        60.087	             	  5.090e-001 	
        60.128	  8.280e-003 	             	
        60.151	             	  5.090e-001 	
        60.192	  8.300e-003 	             	
        60.215	             	  5.090e-001 	
        60.256	  8.420e-003 	             	
        60.279	             	  5.090e-001 	
        60.320	  8.530e-003 	             	
        60.343	             	  5.090e-001 	
        60.384	  8.550e-003 	             	
        60.407	             	  5.090e-001 	
        60.448	  8.650e-003 	             	
        60.503	             	  5.090e-001 	
        60.512	  8.700e-003 	             	
        60.567	             	  5.090e-001 	
        60.576	  8.780e-003 	             	
        60.631	             	  5.090e-001 	
        60.640	  8.880e-003 	             	
        60.695	             	  5.090e-001 	
        60.704	  8.910e-003 	             	
        60.759	             	  5.090e-001 	
        60.768	  9.010e-003 	             	
        60.823	             	  5.090e-001 	
        60.864	  9.080e-003 	             	
        60.887	             	  5.090e-001 	
        60.928	  9.140e-003 	             	
        60.951	             	  5.090e-001 	
        60.992	  9.230e-003 	             	
        61.015	             	  5.090e-001 	
        61.056	  9.300e-003 	             	
        61.079	             	  5.090e-001 	
        61.120	  9.320e-003 	             	
        61.143	             	  5.090e-001 	
        61.184	  9.380e-003 	             	
        61.207	             	  5.090e-001 	
        61.248	  9.460e-003 	             	
        61.303	             	  5.090e-001 	
        61.312	  9.460e-003 	             	
        61.367	             	  5.090e-001 	
        61.376	  9.390e-003 	             	
        61.431	             	  5.090e-001 	
        61.440	  9.390e-003 	             	
        61.495	             	  5.090e-001 	
        61.504	  9.400e-003 	             	
        61.559	             	  5.090e-001 	
        61.568	  9.440e-003 	             	
        61.623	             	  5.090e-001 	
        61.664	  9.450e-003 	             	
        61.687	             	  5.090e-001 	
        61.728	  9.430e-003 	             	
        61.751	             	  5.090e-001 	
        61.792	  9.430e-003 	             	
        61.815	             	  5.090e-001 	
        61.856	  9.400e-003 	             	
        61.879	             	  5.090e-001 	
        61.920	  9.240e-003 	             	
        61.943	             	  5.090e-001 	
        61.984	  9.140e-003 	             	
        62.007	             	  5.090e-001 	
        62.048	  9.050e-003 	             	
        62.103	             	  5.090e-001 	
        62.112	  9.060e-003 	             	
        62.167	             	  5.090e-001 	
        62.176	  9.030e-003 	             	
        62.231	             	  5.090e-001 	
        62.240	  9.020e-003 	             	
        62.295	             	  5.090e-001 	
        62.304	  9.120e-003 	             	
        62.359	             	  5.090e-001 	
        62.368	  9.150e-003 	             	
        62.423	             	  5.090e-001 	
        62.464	  9.180e-003 	             	
        62.487	             	  5.090e-001 	
        62.528	  9.190e-003 	             	
        62.551	             	  5.090e-001 	
        62.592	  9.190e-003 	             	
        62.615	             	  5.090e-001 	
        62.656	  9.220e-003 	             	
        62.679	             	  5.100e-001 	
        62.720	  9.260e-003 	             	
        62.743	             	  5.100e-001 	
        62.784	  9.390e-003 	             	
        62.807	             	  5.100e-001 	
        62.848	  9.380e-003 	             	
        62.871	             	  5.100e-001 	
        62.912	  9.430e-003 	             	
        62.967	             	  5.100e-001 	
        62.976	  9.460e-003 	             	
        63.031	             	  5.100e-001 	
        63.040	  9.500e-003 	             	
        63.095	             	  5.090e-001 	
        63.104	  9.540e-003 	             	
        63.159	             	  5.090e-001 	
        63.168	  9.660e-003 	             	
        63.223	             	  5.090e-001 	
        63.264	  9.650e-003 	             	
        63.287	             	  5.090e-001 	
        63.328	  9.670e-003 	             	
        63.351	             	  5.090e-001 	
        63.392	  9.690e-003 	             	
        63.415	             	  5.090e-001 	
        63.456	  9.710e-003 	             	
        63.479	             	  5.090e-001 	
        63.520	  9.640e-003 	             	
        63.543	             	  5.090e-001 	
        63.584	  9.710e-003 	             	
        63.607	             	  5.090e-001 	
        63.648	  9.650e-003 	             	
        63.671	             	  5.090e-001 	
        63.712	  9.660e-003 	             	
        63.767	             	  5.090e-001 	
        63.776	  9.670e-003 	             	
        63.831	             	  5.090e-001 	
        63.840	  9.520e-003 	             	
        63.895	             	  5.090e-001 	
        63.904	  9.490e-003 	             	
        63.959	             	  5.090e-001 	
        63.968	  9.400e-003 	             	
        64.023	             	  5.090e-001 	
        64.064	  9.360e-003 	             	
        64.087	             	  5.090e-001 	
        64.128	  9.310e-003 	             	
        64.151	             	  5.090e-001 	
        64.192	  9.270e-003 	             	
        64.215	             	  5.090e-001 	
        64.256	  9.170e-003 	             	
        64.279	             	  5.090e-001 	
        64.320	  8.890e-003 	             	
        64.343	             	  5.090e-001 	
        64.384	  8.890e-003 	             	
        64.406	             	  5.090e-001 	
        64.448	  8.900e-003 	             	
        64.471	             	  5.090e-001 	
        64.512	  8.870e-003 	             	
        64.567	             	  5.090e-001 	
        64.576	  8.890e-003 	             	
        64.631	             	  5.090e-001 	
        64.640	  8.910e-003 	             	
        64.694	             	  5.090e-001 	
        64.704	  8.950e-003 	             	
        64.759	             	  5.090e-001 	
        64.768	  8.980e-003 	             	
        64.822	             	  5.090e-001 	
        64.864	  9.010e-003 	             	
        64.887	             	  5.100e-001 	
        64.928	  8.790e-003 	             	
        64.951	             	  5.090e-001 	
        64.992	  8.500e-003 	             	
        65.015	             	  5.090e-001 	
        65.056	  8.530e-003 	             	
        65.078	             	  5.090e-001 	
        65.120	  8.590e-003 	             	
        65.143	             	  5.090e-001 	
        65.184	  8.650e-003 	             	
        65.206	             	  5.090e-001 	
        65.248	  8.640e-003 	             	
        65.271	             	  5.090e-001 	
        65.312	  8.760e-003 	             	
        65.366	             	  5.090e-001 	
        65.376	  8.760e-003 	             	
        65.430	             	  5.090e-001 	
        65.440	  8.910e-003 	             	
        65.495	             	  5.090e-001 	
        65.504	  8.980e-003 	             	
        65.558	             	  5.090e-001 	
        65.568	  9.060e-003 	             	
        65.622	             	  5.090e-001 	
        65.664	  9.140e-003 	             	
        65.686	             	  5.090e-001 	
        65.728	  9.200e-003 	             	
        65.750	             	  5.090e-001 	
        65.792	  9.280e-003 	             	
        65.814	             	  5.090e-001 	
        65.856	  9.320e-003 	             	
        65.878	             	  5.090e-001 	
        65.920	  9.330e-003 	             	
        65.942	             	  5.090e-001 	
        65.984	  9.370e-003 	             	
        66.006	             	  5.090e-001 	
        66.048	  9.290e-003 	             	
        66.071	             	  5.090e-001 	
        66.112	  9.220e-003 	             	
        66.166	             	  5.090e-001 	
        66.176	  9.190e-003 	             	
        66.230	             	  5.090e-001 	
        66.240	  9.190e-003 	             	
        66.295	             	  5.090e-001 	
        66.304	  9.230e-003 	             	
        66.358	             	  5.090e-001 	
        66.368	  9.350e-003 	             	
        66.422	             	  5.090e-001 	
        66.464	  9.410e-003 	             	
        66.487	             	  5.090e-001 	
        66.528	  9.500e-003 	             	
        66.550	             	  5.090e-001 	
        66.592	  9.570e-003 	             	
        66.614	             	  5.090e-001 	
        66.656	  9.640e-003 	             	
        66.678	             	  5.090e-001 	
        66.720	  9.720e-003 	             	
        66.742	             	  5.090e-001 	
        66.784	  9.780e-003 	             	
        66.806	             	  5.090e-001 	
        66.848	  9.830e-003 	             	
        66.870	             	  5.090e-001 	
        66.912	  9.850e-003 	             	
        66.966	             	  5.090e-001 	
        66.976	  9.840e-003 	             	
        67.031	             	  5.090e-001 	
        67.040	  9.640e-003 	             	
        67.094	             	  5.090e-001 	
        67.104	  9.510e-003 	             	
        67.158	             	  5.090e-001 	
        67.168	  9.440e-003 	             	
        67.222	             	  5.090e-001 	
        67.264	  9.360e-003 	             	
        67.286	             	  5.090e-001 	
        67.328	  9.270e-003 	             	
        67.350	             	  5.090e-001 	
        67.392	  9.200e-003 	             	
        67.414	             	  5.090e-001 	
        67.456	  9.140e-003 	             	
        67.478	             	  5.090e-001 	
        67.520	  9.140e-003 	             	
        67.542	             	  5.090e-001 	
        67.584	  9.310e-003 	             	
        67.606	             	  5.090e-001 	
        67.648	  9.480e-003 	             	
        67.670	             	  5.090e-001 	
        67.712	  9.510e-003 	             	
        67.766	             	  5.090e-001 	
        67.776	  9.580e-003 	             	
        67.830	             	  5.090e-001 	
        67.840	  9.690e-003 	             	
        67.894	             	  5.090e-001 	
        67.904	  9.720e-003 	             	
        67.958	             	  5.090e-001 	
        67.968	  9.730e-003 	             	
        68.022	             	  5.090e-001 	
        68.064	  9.750e-003 	             	
        68.086	             	  5.090e-001 	
        68.128	  9.780e-003 	             	
        68.150	             	  5.090e-001 	
        68.192	  9.750e-003 	             	
        68.214	             	  5.090e-001 	
        68.256	  9.760e-003 	             	
        68.278	             	  5.090e-001 	
        68.320	  9.820e-003 	             	
        68.342	             	  5.090e-001 	
        68.384	  9.820e-003 	             	
        68.406	             	  5.090e-001 	
        68.448	  9.860e-003 	             	
        68.470	             	  5.090e-001 	
        68.512	  9.920e-003 	             	
        68.566	             	  5.090e-001 	
        68.576	  9.890e-003 	             	
        68.630	             	  5.090e-001 	
        68.640	  9.950e-003 	             	
        68.694	             	  5.090e-001 	
        68.704	  9.860e-003 	             	
        68.758	             	  5.090e-001 	
        68.768	  9.910e-003 	             	
        68.822	             	  5.090e-001 	
        68.864	  9.850e-003 	             	
        68.886	             	  5.090e-001 	
        68.928	  9.870e-003 	             	
        68.950	             	  5.090e-001 	
        68.992	  9.790e-003 	             	
        69.014	             	  5.090e-001 	
        69.056	  9.790e-003 	             	
        69.078	             	  5.090e-001 	
        69.120	  9.700e-003 	             	
        69.142	             	  5.090e-001 	
        69.184	  9.490e-003 	             	
        69.206	             	  5.090e-001 	
        69.248	  9.430e-003 	             	
        69.270	             	  5.090e-001 	
        69.312	  9.580e-003 	             	
        69.366	             	  5.090e-001 	
        69.376	  9.650e-003 	             	
        69.430	             	  5.090e-001 	
        69.440	  9.630e-003 	             	
        69.494	             	  5.090e-001 	
        69.504	  9.580e-003 	             	
        69.558	             	  5.090e-001 	
        69.568	  9.550e-003 	             	
        69.622	             	  5.090e-001 	
        69.664	  9.530e-003 	             	
        69.686	             	  5.090e-001 	
        69.728	  9.490e-003 	             	
        69.750	             	  5.090e-001 	
        69.792	  9.450e-003 	             	
        69.814	             	  5.090e-001 	
        69.856	  9.440e-003 	             	
        69.878	             	  5.090e-001 	
        69.920	  9.460e-003 	             	
        69.942	             	  5.090e-001 	
        69.984	  9.440e-003 	             	
        70.006	             	  5.090e-001 	
        70.048	  9.420e-003 	             	
        70.070	             	  5.090e-001 	
        70.112	  9.020e-003 	             	
        70.167	             	  5.090e-001 	
        70.176	  8.450e-003 	             	
        70.230	             	  5.090e-001 	
        70.240	  8.590e-003 	             	
        70.294	             	  5.090e-001 	
        70.304	  8.630e-003 	             	
        70.358	             	  5.090e-001 	
        70.368	  8.760e-003 	             	
        70.422	             	  5.090e-001 	
        70.432	  8.810e-003 	             	
        70.486	             	  5.090e-001 	
        70.528	  8.950e-003 	             	
        70.550	             	  5.090e-001 	
        70.592	  9.030e-003 	             	
        70.614	             	  5.090e-001 	
        70.656	  9.110e-003 	             	
        70.678	             	  5.090e-001 	
        70.720	  9.150e-003 	             	
        70.742	             	  5.090e-001 	
        70.784	  9.300e-003 	             	
        70.806	             	  5.090e-001 	
        70.848	  9.460e-003 	             	
        70.870	             	  5.090e-001 	
        70.912	  9.550e-003 	             	
        70.966	             	  5.090e-001 	
        70.976	  9.620e-003 	             	
        71.030	             	  5.090e-001 	
        71.040	  9.670e-003 	             	
        71.094	             	  5.090e-001 	
        71.104	  9.740e-003 	             	
        71.158	             	  5.090e-001 	
        71.168	  9.710e-003 	             	
        71.222	             	  5.090e-001 	
        71.232	  9.760e-003 	             	
        71.286	             	  5.090e-001 	
        71.329	  9.710e-003 	             	
        71.351	             	  5.090e-001 	
        71.393	  9.600e-003 	             	
        71.415	             	  5.090e-001 	
        71.457	  9.560e-003 	             	
        71.479	             	  5.090e-001 	
        71.521	  9.540e-003 	             	
        71.543	             	  5.090e-001 	
        71.585	  9.590e-003 	             	
        71.607	             	  5.090e-001 	
        71.648	  9.580e-003 	             	
        71.671	             	  5.090e-001 	
        71.712	  9.640e-003 	             	
        71.767	             	  5.090e-001 	
        71.777	  9.690e-003 	             	
        71.831	             	  5.090e-001 	
        71.840	  9.750e-003 	             	
        71.895	             	  5.090e-001 	
        71.904	  9.850e-003 	             	
        71.959	             	  5.090e-001 	
        71.969	  9.860e-003 	             	
        72.023	             	  5.090e-001 	
        72.033	  9.930e-003 	             	
        72.087	             	  5.090e-001 	
        72.128	  9.970e-003 	             	
        72.151	             	  5.090e-001 	
        72.193	  9.990e-003 	             	
        72.215	             	  5.090e-001 	
        72.257	  9.990e-003 	             	
        72.279	             	  5.090e-001 	
        72.321	  1.001e-002 	             	
        72.343	             	  5.090e-001 	
        72.385	  9.910e-003 	             	
        72.407	             	  5.090e-001 	
        72.448	  9.770e-003 	             	
        72.471	             	  5.090e-001 	
        72.513	  9.680e-003 	             	
        72.567	             	  5.090e-001 	
        72.576	  9.620e-003 	             	
        72.631	             	  5.090e-001 	
        72.640	  9.770e-003 	             	
        72.695	             	  5.090e-001 	
        72.704	  9.840e-003 	             	
        72.759	             	  5.090e-001 	
        72.768	  9.820e-003 	             	
        72.823	             	  5.090e-001 	
        72.832	  9.700e-003 	             	
        72.887	             	  5.090e-001 	
        72.928	  9.780e-003 	             	
        72.951	             	  5.090e-001 	
        72.992	  9.840e-003 	             	
        73.015	             	  5.090e-001 	
        73.056	  9.840e-003 	             	
        73.079	             	  5.090e-001 	
        73.120	  9.910e-003 	             	
        73.143	             	  5.090e-001 	
        73.184	  9.980e-003 	             	
        73.207	             	  5.090e-001 	
        73.249	  9.990e-003 	             	
        73.271	             	  5.090e-001 	
        73.312	  9.990e-003 	             	
        73.367	             	  5.090e-001 	
        73.376	  9.980e-003 	             	
        73.431	             	  5.090e-001 	
        73.440	  1.001e-002 	             	
        73.495	             	  5.090e-001 	
        73.504	  9.970e-003 	             	
        73.559	             	  5.090e-001 	
        73.568	  9.990e-003 	             	
        73.623	             	  5.090e-001 	
        73.632	  1.003e-002 	             	
        73.687	             	  5.090e-001 	
        73.728	  9.940e-003 	             	
        73.751	             	  5.090e-001 	
        73.792	  9.960e-003 	             	
        73.815	             	  5.090e-001 	
        73.856	  9.940e-003 	             	
        73.879	             	  5.090e-001 	
        73.920	  9.920e-003 	             	
        73.943	             	  5.090e-001 	
        73.984	  9.860e-003 	             	
        74.007	             	  5.090e-001 	
        74.048	  9.830e-003 	             	
        74.071	             	  5.090e-001 	
        74.112	  9.760e-003 	             	
        74.167	             	  5.090e-001 	
        74.176	  9.650e-003 	             	
        74.231	             	  5.090e-001 	
        74.240	  9.600e-003 	             	
        74.295	             	  5.090e-001 	
        74.304	  9.590e-003 	             	
        74.359	             	  5.080e-001 	
        74.368	  9.650e-003 	             	
        74.423	             	  5.080e-001 	
        74.432	  9.660e-003 	             	
        74.487	             	  5.080e-001 	
        74.528	  9.670e-003 	             	
        74.551	             	  5.080e-001 	
        74.592	  9.680e-003 	             	
        74.615	             	  5.090e-001 	
        74.656	  9.630e-003 	             	
        74.679	             	  5.090e-001 	
        74.720	  9.670e-003 	             	
        74.743	             	  5.090e-001 	
        74.784	  9.660e-003 	             	
        74.807	             	  5.090e-001 	
        74.848	  9.640e-003 	             	
        74.871	             	  5.090e-001 	
        74.913	  9.540e-003 	             	
        74.967	             	  5.090e-001 	
        74.976	  9.440e-003 	             	
        75.031	             	  5.090e-001 	
        75.040	  9.340e-003 	             	
        75.095	             	  5.090e-001 	
        75.104	  9.340e-003 	             	
        75.159	             	  5.090e-001 	
        75.168	  9.330e-003 	             	
        75.223	             	  5.090e-001 	
        75.232	  9.330e-003 	             	
        75.287	             	  5.090e-001 	
        75.328	  9.430e-003 	             	
        75.351	             	  5.090e-001 	
        75.392	  9.460e-003 	             	
        75.415	             	  5.090e-001 	
        75.456	  9.510e-003 	             	
        75.479	             	  5.090e-001 	
        75.520	  9.480e-003 	             	
        75.543	             	  5.090e-001 	
        75.584	  9.520e-003 	             	
        75.607	             	  5.090e-001 	
        75.648	  9.500e-003 	             	
        75.671	             	  5.090e-001 	
        75.712	  9.400e-003 	             	
        75.767	             	  5.090e-001 	
        75.776	  9.100e-003 	             	
        75.831	             	  5.090e-001 	
        75.840	  9.040e-003 	             	
        75.895	             	  5.090e-001 	
        75.904	  9.150e-003 	             	
        75.959	             	  5.090e-001 	
        75.968	  9.150e-003 	             	
        76.023	             	  5.090e-001 	
        76.032	  9.300e-003 	             	
        76.087	             	  5.090e-001 	
        76.128	  9.360e-003 	             	
        76.151	             	  5.090e-001 	
        76.192	  9.370e-003 	             	
        76.215	             	  5.090e-001 	
        76.256	  9.420e-003 	             	
        76.279	             	  5.090e-001 	
        76.320	  9.420e-003 	             	
        76.343	             	  5.090e-001 	
        76.384	  9.480e-003 	             	
        76.407	             	  5.090e-001 	
        76.448	  9.480e-003 	             	
        76.471	             	  5.090e-001 	
        76.512	  9.470e-003 	             	
        76.535	             	  5.090e-001 	
        76.576	  9.350e-003 	             	
        76.631	             	  5.090e-001 	
        76.640	  9.370e-003 	             	
        76.695	             	  5.090e-001 	
        76.704	  9.380e-003 	             	
        76.759	             	  5.090e-001 	
        76.768	  9.470e-003 	             	
        76.823	             	  5.090e-001 	
        76.832	  9.460e-003 	             	
        76.887	             	  5.090e-001 	
        76.928	  9.480e-003 	             	
        76.951	             	  5.090e-001 	
        76.992	  9.490e-003 	             	
        77.015	             	  5.090e-001 	
        77.056	  9.410e-003 	             	
        77.079	             	  5.090e-001 	
        77.120	  9.460e-003 	             	
        77.143	             	  5.090e-001 	
        77.184	  9.520e-003 	             	
        77.207	             	  5.080e-001 	
        77.248	  9.590e-003 	             	
        77.271	             	  5.080e-001 	
        77.312	  9.670e-003 	             	
        77.335	             	  5.090e-001 	
        77.376	  9.770e-003 	             	
        77.431	             	  5.090e-001 	
        77.440	  9.860e-003 	             	
        77.495	             	  5.090e-001 	
        77.504	  9.870e-003 	             	
        77.559	             	  5.090e-001 	
        77.568	  9.860e-003 	             	
        77.623	             	  5.090e-001 	
        77.632	  9.700e-003 	             	
        77.687	             	  5.090e-001 	
        77.728	  9.470e-003 	             	
        77.751	             	  5.090e-001 	
        77.792	  9.260e-003 	             	
        77.815	             	  5.090e-001 	
        77.856	  9.320e-003 	             	
        77.879	             	  5.090e-001 	
        77.920	  9.400e-003 	             	
        77.943	             	  5.090e-001 	
        77.984	  9.350e-003 	             	
        78.007	             	  5.090e-001 	
        78.048	  9.390e-003 	             	
        78.071	             	  5.090e-001 	
        78.112	  9.390e-003 	             	
        78.135	             	  5.090e-001 	
        78.176	  9.420e-003 	             	
        78.231	             	  5.090e-001 	
        78.240	  9.430e-003 	             	
        78.295	             	  5.090e-001 	
        78.304	  9.610e-003 	             	
        78.359	             	  5.090e-001 	
        78.368	  9.710e-003 	             	
        78.423	             	  5.090e-001 	
        78.432	  9.730e-003 	             	
        78.487	             	  5.090e-001 	
        78.528	  9.690e-003 	             	
        78.551	             	  5.090e-001 	
        78.592	  9.800e-003 	             	
        78.615	             	  5.090e-001 	
        78.656	  9.790e-003 	             	
        78.679	             	  5.090e-001 	
        78.720	  9.740e-003 	             	
        78.743	             	  5.090e-001 	
        78.784	  9.730e-003 	             	
        78.807	             	  5.090e-001 	
        78.848	  9.610e-003 	             	
        78.871	             	  5.090e-001 	
        78.912	  9.590e-003 	             	
        78.935	             	  5.090e-001 	
        78.976	  9.540e-003 	             	
        79.031	             	  5.090e-001 	
        79.040	  9.570e-003 	             	
        79.095	             	  5.090e-001 	
        79.104	  9.550e-003 	             	
        79.159	             	  5.090e-001 	
        79.168	  9.550e-003 	             	
        79.223	             	  5.090e-001 	
        79.232	  9.500e-003 	             	
        79.287	             	  5.090e-001 	
        79.328	  9.450e-003 	             	
        79.351	             	  5.090e-001 	
        79.392	  9.370e-003 	             	
        79.415	             	  5.090e-001 	
        79.456	  9.360e-003 	             	
        79.479	             	  5.090e-001 	
        79.520	  9.390e-003 	             	
        79.543	             	  5.090e-001 	
        79.584	  9.420e-003 	             	
        79.607	             	  5.090e-001 	
        79.648	  9.380e-003 	             	
        79.671	             	  5.080e-001 	
        79.712	  9.410e-003 	             	
        79.735	             	  5.090e-001 	
        79.776	  9.440e-003 	             	
        79.831	             	  5.090e-001 	
        79.840	  9.380e-003 	             	
        79.895	             	  5.090e-001 	
        79.904	  9.350e-003 	             	
        79.959	             	  5.090e-001 	
        79.968	  9.330e-003 	             	
        80.023	             	  5.090e-001 	
        80.032	  9.250e-003 	             	
        80.087	             	  5.090e-001 	
        80.128	  9.250e-003 	             	
        80.151	             	  5.090e-001 	
        80.192	  9.180e-003 	             	
        80.215	             	  5.090e-001 	
        80.256	  9.170e-003 	             	
        80.279	             	  5.090e-001 	
        80.320	  9.120e-003 	             	
        80.343	             	  5.090e-001 	
        80.384	  9.090e-003 	             	
        80.407	             	  5.090e-001 	
        80.448	  9.100e-003 	             	
        80.471	             	  5.090e-001 	
        80.512	  8.680e-003 	             	
        80.535	             	  5.090e-001 	
        80.576	  8.480e-003 	             	
        80.631	             	  5.090e-001 	
        80.640	  8.190e-003 	             	
        80.695	             	  5.090e-001 	
        80.704	  8.310e-003 	             	
        80.759	             	  5.090e-001 	
        80.768	  8.360e-003 	             	
        80.823	             	  5.090e-001 	
        80.832	  8.370e-003 	             	
        80.887	             	  5.090e-001 	
        80.928	  8.360e-003 	             	
        80.951	             	  5.080e-001 	
        80.992	  8.300e-003 	             	
        81.015	             	  5.080e-001 	
        81.056	  8.340e-003 	             	
        81.079	             	  5.080e-001 	
        81.120	  8.360e-003 	             	
        81.143	             	  5.080e-001 	
        81.184	  8.380e-003 	             	
        81.207	             	  5.080e-001 	
        81.248	  8.390e-003 	             	
        81.271	             	  5.080e-001 	
        81.312	  8.410e-003 	             	
        81.335	             	  5.080e-001 	
        81.376	  8.500e-003 	             	
        81.431	             	  5.090e-001 	
        81.440	  8.580e-003 	             	
        81.495	             	  5.090e-001 	
        81.504	  8.700e-003 	             	
        81.559	             	  5.090e-001 	
        81.568	  8.750e-003 	             	
        81.623	             	  5.090e-001 	
        81.632	  8.550e-003 	             	
        81.687	             	  5.090e-001 	
        81.728	  8.460e-003 	             	
        81.751	             	  5.090e-001 	
        81.792	  8.760e-003 	             	
        81.814	             	  5.090e-001 	
        81.856	  8.910e-003 	             	
        81.878	             	  5.090e-001 	
        81.920	  9.070e-003 	             	
        81.942	             	  5.090e-001 	
        81.984	  9.090e-003 	             	
        82.006	             	  5.090e-001 	
        82.048	  9.140e-003 	             	
        82.071	             	  5.090e-001 	
        82.112	  9.080e-003 	             	
        82.135	             	  5.090e-001 	
        82.176	  9.090e-003 	             	
        82.231	             	  5.090e-001 	
        82.240	  9.000e-003 	             	
        82.295	             	  5.090e-001 	
        82.304	  9.000e-003 	             	
        82.359	             	  5.090e-001 	
        82.368	  8.980e-003 	             	
        82.422	             	  5.090e-001 	
        82.432	  9.020e-003 	             	
        82.487	             	  5.090e-001 	
        82.528	  9.040e-003 	             	
        82.551	             	  5.090e-001 	
        82.592	  9.100e-003 	             	
        82.615	             	  5.090e-001 	
        82.656	  9.150e-003 	             	
        82.679	             	  5.090e-001 	
        82.720	  9.180e-003 	             	
        82.743	             	  5.090e-001 	
        82.784	  9.210e-003 	             	
        82.806	             	  5.090e-001 	
        82.848	  9.170e-003 	             	
        82.871	             	  5.090e-001 	
        82.912	  9.080e-003 	             	
        82.934	             	  5.090e-001 	
        82.976	  8.830e-003 	             	
        83.031	             	  5.090e-001 	
        83.040	  8.550e-003 	             	
        83.094	             	  5.090e-001 	
        83.104	  8.500e-003 	             	
        83.158	             	  5.090e-001 	
        83.168	  8.680e-003 	             	
        83.222	             	  5.090e-001 	
        83.232	  8.710e-003 	             	
        83.286	             	  5.090e-001 	
        83.328	  8.680e-003 	             	
        83.350	             	  5.090e-001 	
        83.392	  8.640e-003 	             	
        83.414	             	  5.090e-001 	
        83.456	  8.660e-003 	             	
        83.478	             	  5.090e-001 	
        83.520	  8.680e-003 	             	
        83.543	             	  5.090e-001 	
        83.584	  8.730e-003 	             	
        83.606	             	  5.090e-001 	
        83.648	  8.920e-003 	             	
        83.670	             	  5.090e-001 	
        83.712	  9.030e-003 	             	
        83.734	             	  5.090e-001 	
        83.776	  9.020e-003 	             	
        83.830	             	  5.090e-001 	
        83.840	  9.040e-003 	             	
        83.894	             	  5.090e-001 	
        83.904	  9.070e-003 	             	
        83.958	             	  5.090e-001 	
        83.968	  9.060e-003 	             	
        84.022	             	  5.090e-001 	
        84.032	  9.050e-003 	             	
        84.086	             	  5.090e-001 	
        84.096	  9.110e-003 	             	
        84.150	             	  5.090e-001 	
        84.192	  9.120e-003 	             	
        84.214	             	  5.090e-001 	
        84.256	  9.080e-003 	             	
        84.278	             	  5.090e-001 	
        84.320	  9.120e-003 	             	
        84.342	             	  5.090e-001 	
        84.384	  9.100e-003 	             	
        84.406	             	  5.090e-001 	
        84.448	  9.110e-003 	             	
        84.471	             	  5.090e-001 	
        84.512	  9.050e-003 	             	
        84.534	             	  5.090e-001 	
        84.576	  9.010e-003 	             	
        84.630	             	  5.090e-001 	
        84.640	  8.930e-003 	             	
        84.694	             	  5.090e-001 	
        84.704	  8.840e-003 	             	
        84.758	             	  5.090e-001 	
        84.768	  8.850e-003 	             	
        84.822	             	  5.090e-001 	
        84.832	  8.890e-003 	             	
        84.887	             	  5.090e-001 	
        84.896	  8.930e-003 	             	
        84.950	             	  5.090e-001 	
        84.992	  8.950e-003 	             	
        85.014	             	  5.080e-001 	
        85.056	  8.890e-003 	             	
        85.078	             	  5.090e-001 	
        85.120	  8.940e-003 	             	
        85.142	             	  5.090e-001 	
        85.184	  8.740e-003 	             	
        85.206	             	  5.090e-001 	
        85.248	  8.590e-003 	             	
        85.270	             	  5.090e-001 	
        85.312	  8.470e-003 	             	
        85.334	             	  5.090e-001 	
        85.376	  8.430e-003 	             	
        85.430	             	  5.090e-001 	
        85.440	  8.380e-003 	             	
        85.494	             	  5.090e-001 	
        85.504	  8.420e-003 	             	
        85.558	             	  5.090e-001 	
        85.568	  8.290e-003 	             	
        85.622	             	  5.100e-001 	
        85.632	  8.270e-003 	             	
        85.686	             	  5.100e-001 	
        85.696	  8.260e-003 	             	
        85.750	             	  5.090e-001 	
        85.792	  8.170e-003 	             	
        85.814	             	  5.090e-001 	
        85.856	  8.190e-003 	             	
        85.878	             	  5.090e-001 	
        85.920	  8.270e-003 	             	
        85.942	             	  5.090e-001 	
        85.984	  8.270e-003 	             	
        86.006	             	  5.090e-001 	
        86.048	  8.240e-003 	             	
        86.070	             	  5.090e-001 	
        86.112	  7.740e-003 	             	
        86.134	             	  5.090e-001 	
        86.176	  7.490e-003 	             	
        86.230	             	  5.090e-001 	
        86.240	  7.570e-003 	             	
        86.294	             	  5.090e-001 	
        86.304	  7.620e-003 	             	
        86.358	             	  5.090e-001 	
        86.368	  7.610e-003 	             	
        86.422	             	  5.090e-001 	
        86.432	  7.720e-003 	             	
        86.486	             	  5.090e-001 	
        86.496	  7.780e-003 	             	
        86.550	             	  5.090e-001 	
        86.592	  7.800e-003 	             	
        86.614	             	  5.090e-001 	
        86.656	  7.870e-003 	             	
        86.678	             	  5.090e-001 	
        86.720	  7.900e-003 	             	
        86.742	             	  5.090e-001 	
        86.784	  7.550e-003 	             	
        86.806	             	  5.090e-001 	
        86.848	  7.600e-003 	             	
        86.870	             	  5.090e-001 	
        86.912	  7.870e-003 	             	
        86.934	             	  5.090e-001 	
        86.976	  8.060e-003 	             	
        87.030	             	  5.090e-001 	
        87.040	  8.180e-003 	             	
        87.094	             	  5.090e-001 	
        87.104	  8.250e-003 	             	
        87.158	             	  5.090e-001 	
        87.168	  8.270e-003 	             	
        87.222	             	  5.090e-001 	
        87.232	  8.300e-003 	             	
        87.286	             	  5.090e-001 	
        87.296	  8.330e-003 	             	
        87.350	             	  5.090e-001 	
        87.392	  8.280e-003 	             	
        87.414	             	  5.090e-001 	
        87.456	  8.210e-003 	             	
        87.478	             	  5.090e-001 	
        87.520	  8.160e-003 	             	
        87.542	             	  5.090e-001 	
        87.584	  8.150e-003 	             	
        87.606	             	  5.090e-001 	
        87.648	  8.210e-003 	             	
        87.670	             	  5.090e-001 	
        87.712	  8.210e-003 	             	
        87.734	             	  5.090e-001 	
        87.776	  8.220e-003 	             	
        87.830	             	  5.090e-001 	
        87.840	  8.250e-003 	             	
        87.894	             	  5.090e-001 	
        87.904	  8.170e-003 	             	
        87.958	             	  5.090e-001 	
        87.968	  8.260e-003 	             	
        88.022	             	  5.090e-001 	
        88.032	  8.210e-003 	             	
        88.086	             	  5.090e-001 	
        88.096	  8.240e-003 	             	
        88.150	             	  5.090e-001 	
        88.192	  8.160e-003 	             	
        88.214	             	  5.090e-001 	
        88.256	  7.970e-003 	             	
        88.278	             	  5.090e-001 	
        88.320	  7.660e-003 	             	
        88.342	             	  5.090e-001 	
        88.383	  7.310e-003 	             	
        88.406	             	  5.090e-001 	
        88.448	  7.220e-003 	             	
        88.470	             	  5.090e-001 	
        88.512	  7.290e-003 	             	
        88.534	             	  5.090e-001 	
        88.576	  7.240e-003 	             	
        88.598	             	  5.090e-001 	
        88.640	  7.280e-003 	             	
        88.694	             	  5.090e-001 	
        88.704	  7.240e-003 	             	
        88.758	             	  5.090e-001 	
        88.768	  7.220e-003 	             	
        88.823	             	  5.090e-001 	
        88.833	  7.240e-003 	             	
        88.887	             	  5.090e-001 	
        88.897	  7.470e-003 	             	
        88.951	             	  5.090e-001 	
        88.993	  7.810e-003 	             	
        89.015	             	  5.090e-001 	
        89.056	  7.800e-003 	             	
        89.079	             	  5.090e-001 	
        89.121	  7.870e-003 	             	
        89.143	             	  5.090e-001 	
        89.184	  7.890e-003 	             	
        89.207	             	  5.090e-001 	
        89.249	  7.860e-003 	             	
        89.271	             	  5.090e-001 	
        89.313	  7.930e-003 	             	
        89.335	             	  5.090e-001 	
        89.377	  7.970e-003 	             	
        89.399	             	  5.090e-001 	
        89.441	  8.000e-003 	             	
        89.495	             	  5.090e-001 	
        89.505	  8.030e-003 	             	
        89.559	             	  5.090e-001 	
        89.568	  8.030e-003 	             	
        89.623	             	  5.090e-001 	
        89.633	  8.030e-003 	             	
        89.687	             	  5.090e-001 	
        89.696	  8.030e-003 	             	
        89.751	             	  5.080e-001 	
        89.793	  8.010e-003 	             	
        89.815	             	  5.090e-001 	
        89.857	  8.020e-003 	             	
        89.879	             	  5.090e-001 	
        89.920	  7.980e-003 	             	
        89.943	             	  5.090e-001 	
        89.984	  7.950e-003 	             	
        90.007	             	  5.090e-001 	
        90.049	  7.920e-003 	             	
        90.071	             	  5.090e-001 	
        90.112	  7.860e-003 	             	
        90.135	             	  5.090e-001 	
        90.176	  7.850e-003 	             	
        90.199	             	  5.090e-001 	
        90.240	  7.820e-003 	             	
        90.295	             	  5.090e-001 	
        90.304	  7.830e-003 	             	
        90.359	             	  5.090e-001 	
        90.368	  7.770e-003 	             	
        90.423	             	  5.090e-001 	
        90.433	  7.730e-003 	             	
        90.487	             	  5.090e-001 	
        90.496	  7.540e-003 	             	
        90.551	             	  5.090e-001 	
        90.592	  7.480e-003 	             	
        90.615	             	  5.090e-001 	
        90.656	  7.430e-003 	             	
        90.679	             	  5.090e-001 	
        90.720	  7.410e-003 	             	
        90.743	             	  5.090e-001 	
        90.784	  7.390e-003 	             	
        90.807	             	  5.090e-001 	
        90.848	  7.360e-003 	             	
        90.871	             	  5.090e-001 	
        90.912	  7.280e-003 	             	
        90.935	             	  5.090e-001 	
        90.976	  7.180e-003 	             	
        90.999	             	  5.090e-001 	
        91.040	  7.180e-003 	             	
        91.095	             	  5.090e-001 	
        91.104	  7.130e-003 	             	
        91.159	             	  5.090e-001 	
        91.168	  7.200e-003 	             	
        91.223	             	  5.090e-001 	
        91.232	  7.160e-003 	             	
        91.287	             	  5.090e-001 	
        91.297	  7.070e-003 	             	
        91.351	             	  5.090e-001 	
        91.392	  6.450e-003 	             	
        91.415	             	  5.090e-001 	
        91.456	  6.400e-003 	             	
        91.479	             	  5.090e-001 	
        91.520	  6.350e-003 	             	
        91.543	             	  5.090e-001 	
        91.584	  6.230e-003 	             	
        91.607	             	  5.090e-001 	
        91.648	  6.030e-003 	             	
        91.671	             	  5.090e-001 	
        91.712	  6.020e-003 	             	
        91.735	             	  5.090e-001 	
        91.776	  6.040e-003 	             	
        91.799	             	  5.090e-001 	
        91.840	  6.160e-003 	             	
        91.895	             	  5.090e-001 	
        91.904	  6.300e-003 	             	
        91.959	             	  5.090e-001 	
        91.968	  6.440e-003 	             	
        92.023	             	  5.090e-001 	
        92.032	  6.660e-003 	             	
        92.087	             	  5.090e-001 	
        92.096	  6.820e-003 	             	
        92.151	             	  5.090e-001 	
        92.192	  6.940e-003 	             	
        92.215	             	  5.090e-001 	
        92.256	  7.060e-003 	             	
        92.279	             	  5.090e-001 	
        92.320	  7.180e-003 	             	
        92.343	             	  5.090e-001 	
        92.384	  7.300e-003 	             	
        92.407	             	  5.090e-001 	
        92.448	  7.370e-003 	             	
        92.471	             	  5.090e-001 	
        92.512	  7.420e-003 	             	
        92.535	             	  5.090e-001 	
        92.576	  7.420e-003 	             	
        92.599	             	  5.090e-001 	
        92.640	  7.420e-003 	             	
        92.695	             	  5.090e-001 	
        92.704	  7.440e-003 	             	
        92.759	             	  5.090e-001 	
        92.768	  7.450e-003 	             	
        92.823	             	  5.090e-001 	
        92.832	  7.420e-003 	             	
        92.887	             	  5.090e-001 	
        92.896	  7.420e-003 	             	
        92.951	             	  5.090e-001 	
        92.992	  7.340e-003 	             	
        93.015	             	  5.090e-001 	
        93.056	  7.310e-003 	             	
        93.079	             	  5.090e-001 	
        93.120	  7.320e-003 	             	
        93.143	             	  5.090e-001 	
        93.184	  7.290e-003 	             	
        93.207	             	  5.090e-001 	
        93.248	  7.260e-003 	             	
        93.271	             	  5.090e-001 	
        93.312	  7.220e-003 	             	
        93.335	             	  5.090e-001 	
        93.376	  7.290e-003 	             	
        93.399	             	  5.090e-001 	
        93.440	  7.310e-003 	             	
        93.495	             	  5.090e-001 	
        93.504	  6.940e-003 	             	
        93.559	             	  5.090e-001 	
        93.568	  6.730e-003 	             	
        93.623	             	  5.090e-001 	
        93.632	  6.630e-003 	             	
        93.687	             	  5.090e-001 	
        93.696	  6.610e-003 	             	
        93.751	             	  5.090e-001 	
        93.792	  6.610e-003 	             	
        93.815	             	  5.090e-001 	
        93.856	  6.700e-003 	             	
        93.879	             	  5.090e-001 	
        93.920	  6.760e-003 	             	
        93.943	             	  5.090e-001 	
        93.984	  6.810e-003 	             	
        94.007	             	  5.090e-001 	
        94.048	  6.810e-003 	             	
        94.071	             	  5.090e-001 	
        94.112	  6.850e-003 	             	
        94.135	             	  5.090e-001 	
        94.176	  6.890e-003 	             	
        94.199	             	  5.090e-001 	
        94.240	  6.920e-003 	             	
        94.295	             	  5.090e-001 	
        94.304	  6.940e-003 	             	
        94.359	             	  5.090e-001 	
        94.368	  6.970e-003 	             	
        94.423	             	  5.090e-001 	
        94.432	  7.020e-003 	             	
        94.487	             	  5.090e-001 	
        94.496	  7.030e-003 	             	
        94.551	             	  5.090e-001 	
        94.592	  7.030e-003 	             	
        94.615	             	  5.090e-001 	
        94.656	  7.240e-003 	             	
        94.679	             	  5.090e-001 	
        94.720	  7.400e-003 	             	
        94.743	             	  5.090e-001 	
        94.784	  7.460e-003 	             	
        94.807	             	  5.090e-001 	
        94.848	  7.490e-003 	             	
        94.871	             	  5.090e-001 	
        94.912	  7.510e-003 	             	
        94.935	             	  5.090e-001 	
        94.976	  7.520e-003 	             	
        94.999	             	  5.090e-001 	
        95.040	  7.530e-003 	             	
        95.095	             	  5.090e-001 	
        95.104	  7.540e-003 	             	
        95.159	             	  5.090e-001 	
        95.168	  7.540e-003 	             	
        95.223	             	  5.090e-001 	
        95.232	  7.530e-003 	             	
        95.287	             	  5.090e-001 	
        95.296	  7.530e-003 	             	
        95.351	             	  5.090e-001 	
        95.392	  7.510e-003 	             	
        95.415	             	  5.090e-001 	
        95.456	  7.290e-003 	             	
        95.479	             	  5.090e-001 	
        95.520	  7.280e-003 	             	
        95.543	             	  5.090e-001 	
        95.584	  7.240e-003 	             	
        95.607	             	  5.090e-001 	
        95.648	  7.200e-003 	             	
        95.671	             	  5.090e-001 	
        95.712	  7.190e-003 	             	
        95.735	             	  5.090e-001 	
        95.776	  7.240e-003 	             	
        95.799	             	  5.090e-001 	
        95.840	  7.070e-003 	             	
        95.895	             	  5.090e-001 	
        95.904	  7.020e-003 	             	
        95.959	             	  5.090e-001 	
        95.968	  6.970e-003 	             	
        96.023	             	  5.090e-001 	
        96.032	  6.920e-003 	             	
        96.087	             	  5.090e-001 	
        96.096	  6.870e-003 	             	
        96.151	             	  5.090e-001 	
        96.192	  6.750e-003 	             	
        96.215	             	  5.090e-001 	
        96.256	  6.370e-003 	             	
        96.279	             	  5.090e-001 	
        96.320	  6.380e-003 	             	
        96.343	             	  5.090e-001 	
        96.384	  6.390e-003 	             	
        96.407	             	  5.090e-001 	
        96.448	  6.470e-003 	             	
        96.471	             	  5.090e-001 	
        96.512	  6.540e-003 	             	
        96.535	             	  5.090e-001 	
        96.576	  6.580e-003 	             	
        96.599	             	  5.090e-001 	
        96.640	  6.610e-003 	             	
        96.695	             	  5.090e-001 	
        96.704	  6.620e-003 	             	
        96.759	             	  5.090e-001 	
        96.768	  6.650e-003 	             	
        96.823	             	  5.090e-001 	
        96.832	  6.600e-003 	             	
        96.887	             	  5.090e-001 	
        96.896	  6.630e-003 	             	
        96.951	             	  5.090e-001 	
        96.960	  6.640e-003 	             	
        97.015	             	  5.090e-001 	
        97.056	  6.620e-003 	             	
        97.079	             	  5.090e-001 	
        97.120	  6.650e-003 	             	
        97.143	             	  5.090e-001 	
        97.184	  6.640e-003 	             	
        97.207	             	  5.090e-001 	
        97.248	  6.420e-003 	             	
        97.271	             	  5.090e-001 	
        97.312	  6.380e-003 	             	
        97.335	             	  5.090e-001 	
        97.376	  6.430e-003 	             	
        97.399	             	  5.090e-001 	
        97.440	  6.520e-003 	             	
        97.495	             	  5.090e-001 	
        97.504	  6.610e-003 	             	
        97.559	             	  5.090e-001 	
        97.568	  6.670e-003 	             	
        97.623	             	  5.090e-001 	
        97.632	  6.750e-003 	             	
        97.687	             	  5.090e-001 	
        97.696	  6.840e-003 	             	
        97.751	             	  5.090e-001 	
        97.792	  6.880e-003 	             	
        97.815	             	  5.090e-001 	
        97.856	  6.960e-003 	             	
        97.879	             	  5.090e-001 	
        97.920	  6.990e-003 	             	
        97.943	             	  5.090e-001 	
        97.984	  7.000e-003 	             	
        98.007	             	  5.090e-001 	
        98.048	  7.000e-003 	             	
        98.071	             	  5.090e-001 	
        98.112	  7.020e-003 	             	
        98.135	             	  5.090e-001 	
        98.176	  6.990e-003 	             	
        98.199	             	  5.090e-001 	
        98.240	  6.920e-003 	             	
        98.295	             	  5.090e-001 	
        98.304	  6.900e-003 	             	
        98.359	             	  5.090e-001 	
        98.368	  6.880e-003 	             	
        98.423	             	  5.090e-001 	
        98.432	  6.850e-003 	             	
        98.487	             	  5.090e-001 	
        98.496	  6.840e-003 	             	
        98.551	             	  5.090e-001 	
        98.560	  6.790e-003 	             	
        98.615	             	  5.090e-001 	
        98.656	  6.750e-003 	             	
        98.679	             	  5.090e-001 	
        98.720	  6.760e-003 	             	
        98.743	             	  5.090e-001 	
        98.784	  6.570e-003 	             	
        98.807	             	  5.090e-001 	
        98.848	  6.490e-003 	             	
        98.871	             	  5.090e-001 	
        98.912	  6.500e-003 	             	
        98.935	             	  5.090e-001 	
        98.976	  6.510e-003 	             	
        98.999	             	  5.090e-001 	
        99.040	  6.550e-003 	             	
        99.095	             	  5.090e-001 	
        99.104	  6.600e-003 	             	
        99.159	             	  5.090e-001 	
        99.168	  6.650e-003 	             	
        99.223	             	  5.090e-001 	
        99.232	  6.670e-003 	             	
        99.286	             	  5.090e-001 	
        99.296	  6.700e-003 	             	
        99.351	             	  5.090e-001 	
        99.360	  6.740e-003 	             	
        99.415	             	  5.090e-001 	
        99.456	  6.780e-003 	             	
        99.479	             	  5.090e-001 	
        99.520	  6.780e-003 	             	
        99.543	             	  5.090e-001 	
        99.584	  6.810e-003 	             	
        99.606	             	  5.090e-001 	
        99.648	  6.850e-003 	             	
        99.671	             	  5.090e-001 	
        99.712	  6.890e-003 	             	
        99.735	             	  5.090e-001 	
        99.776	  6.910e-003 	             	
        99.799	             	  5.090e-001 	
        99.840	  6.960e-003 	             	
        99.894	             	  5.090e-001 	
        99.904	  6.970e-003 	             	
        99.959	             	  5.090e-001 	
        99.968	  7.040e-003 	             	
       100.023	             	  5.090e-001 	
       100.032	  7.010e-003 	             	
       100.087	             	  5.090e-001 	
       100.096	  7.000e-003 	             	
       100.150	             	  5.090e-001 	
       100.160	  6.880e-003 	             	
       100.215	             	  5.090e-001 	
       100.256	  6.880e-003 	             	
       100.278	             	  5.090e-001 	
       100.320	  7.070e-003 	             	
       100.343	             	  5.090e-001 	
       100.384	  7.450e-003 	             	
       100.406	             	  5.090e-001 	
       100.448	  7.510e-003 	             	
       100.471	             	  5.090e-001 	
       100.512	  7.490e-003 	             	
       100.535	             	  5.090e-001 	
       100.576	  7.460e-003 	             	
       100.598	             	  5.090e-001 	
       100.640	  7.410e-003 	             	
       100.694	             	  5.090e-001 	
       100.704	  7.340e-003 	             	
       100.758	             	  5.090e-001 	
       100.768	  7.140e-003 	             	
       100.822	             	  5.090e-001 	
       100.832	  7.160e-003 	             	
       100.886	             	  5.090e-001 	
       100.896	  7.060e-003 	             	
       100.950	             	  5.090e-001 	
       100.960	  6.980e-003 	             	
       101.015	             	  5.090e-001 	
       101.056	  6.980e-003 	             	
       101.078	             	  5.090e-001 	
       101.120	  6.940e-003 	             	
       101.142	             	  5.090e-001 	
       101.184	  6.880e-003 	             	
       101.206	             	  5.090e-001 	
       101.248	  6.830e-003 	             	
       101.270	             	  5.090e-001 	
       101.312	  6.810e-003 	             	
       101.334	             	  5.090e-001 	
       101.376	  6.780e-003 	             	
       101.398	             	  5.090e-001 	
       101.440	  6.740e-003 	             	
       101.462	             	  5.090e-001 	
       101.504	  6.710e-003 	             	
       101.558	             	  5.090e-001 	
       101.568	  6.640e-003 	             	
       101.622	             	  5.090e-001 	
       101.632	  6.510e-003 	             	
       101.686	             	  5.090e-001 	
       101.696	  6.500e-003 	             	
       101.750	             	  5.090e-001 	
       101.760	  6.590e-003 	             	
       101.814	             	  5.090e-001 	
       101.856	  6.700e-003 	             	
       101.878	             	  5.090e-001 	
       101.920	  6.720e-003 	             	
       101.942	             	  5.090e-001 	
       101.984	  6.770e-003 	             	
       102.006	             	  5.090e-001 	
       102.048	  6.760e-003 	             	
       102.070	             	  5.090e-001 	
       102.112	  6.740e-003 	             	
       102.134	             	  5.090e-001 	
       102.176	  6.700e-003 	             	
       102.198	             	  5.090e-001 	
       102.240	  6.680e-003 	             	
       102.262	             	  5.090e-001 	
       102.304	  6.670e-003 	             	
       102.358	             	  5.090e-001 	
       102.368	  6.550e-003 	             	
       102.422	             	  5.090e-001 	
       102.432	  6.430e-003 	             	
       102.486	             	  5.090e-001 	
       102.496	  6.390e-003 	             	
       102.550	             	  5.090e-001 	
       102.560	  6.360e-003 	             	
       102.614	             	  5.090e-001 	
       102.656	  6.400e-003 	             	
       102.678	             	  5.090e-001 	
       102.720	  6.450e-003 	             	
       102.742	             	  5.090e-001 	
       102.784	  6.460e-003 	             	
       102.806	             	  5.090e-001 	
       102.848	  6.530e-003 	             	
       102.870	             	  5.080e-001 	
       102.912	  6.580e-003 	             	
       102.934	             	  5.090e-001 	
       102.976	  6.610e-003 	             	
       102.998	             	  5.090e-001 	
       103.040	  6.710e-003 	             	
       103.062	             	  5.090e-001 	
       103.104	  6.780e-003 	             	
       103.158	             	  5.090e-001 	
       103.168	  6.820e-003 	             	
       103.222	             	  5.090e-001 	
       103.232	  6.820e-003 	             	
       103.286	             	  5.090e-001 	
       103.296	  6.860e-003 	             	
       103.350	             	  5.090e-001 	
       103.360	  6.890e-003 	             	
       103.414	             	  5.090e-001 	
       103.456	  6.880e-003 	             	
       103.478	             	  5.090e-001 	
       103.520	  6.870e-003 	             	
       103.542	             	  5.090e-001 	
       103.584	  6.880e-003 	             	
       103.606	             	  5.090e-001 	
       103.648	  6.820e-003 	             	
       103.670	             	  5.090e-001 	
       103.712	  6.750e-003 	             	
       103.734	             	  5.090e-001 	
       103.776	  6.730e-003 	             	
       103.798	             	  5.090e-001 	
       103.840	  6.750e-003 	             	
       103.862	             	  5.090e-001 	
       103.904	  6.770e-003 	             	
       103.958	             	  5.090e-001 	
       103.968	  6.670e-003 	             	
       104.022	             	  5.090e-001 	
       104.032	  6.600e-003 	             	
       104.086	             	  5.080e-001 	
       104.096	  6.610e-003 	             	
       104.150	             	  5.080e-001 	
       104.160	  6.710e-003 	             	
       104.214	             	  5.080e-001 	
       104.256	  6.760e-003 	             	
       104.278	             	  5.090e-001 	
       104.320	  6.800e-003 	             	
       104.342	             	  5.090e-001 	
       104.384	  6.840e-003 	             	
       104.406	             	  5.090e-001 	
       104.448	  6.880e-003 	             	
       104.470	             	  5.090e-001 	
       104.512	  6.890e-003 	             	
       104.534	             	  5.090e-001 	
       104.576	  6.930e-003 	             	
       104.598	             	  5.090e-001 	
       104.640	  6.960e-003 	             	
       104.662	             	  5.090e-001 	
       104.704	  7.000e-003 	             	
       104.758	             	  5.090e-001 	
       104.768	  7.020e-003 	             	
       104.822	             	  5.090e-001 	
       104.832	  7.030e-003 	             	
       104.886	             	  5.090e-001 	
       104.896	  7.040e-003 	             	
       104.950	             	  5.090e-001 	
       104.960	  7.090e-003 	             	
       105.014	             	  5.090e-001 	
       105.056	  7.130e-003 	             	
       105.078	             	  5.090e-001 	
       105.120	  7.130e-003 	             	
       105.142	             	  5.090e-001 	
       105.184	  7.200e-003 	             	
       105.206	             	  5.090e-001 	
       105.248	  7.140e-003 	             	
       105.270	             	  5.090e-001 	
       105.312	  6.980e-003 	             	
       105.334	             	  5.090e-001 	
       105.376	  7.010e-003 	             	
       105.398	             	  5.090e-001 	
       105.440	  7.040e-003 	             	
       105.462	             	  5.090e-001 	
       105.504	  7.050e-003 	             	
       105.558	             	  5.090e-001 	
       105.568	  7.060e-003 	             	
       105.622	             	  5.090e-001 	
       105.632	  7.200e-003 	             	
       105.686	             	  5.090e-001 	
       105.696	  7.160e-003 	             	
       105.750	             	  5.090e-001 	
       105.760	  7.210e-003 	             	
       105.814	             	  5.090e-001 	
       105.856	  7.160e-003 	             	
       105.878	             	  5.090e-001 	
       105.920	  7.360e-003 	             	
       105.942	             	  5.090e-001 	
       105.984	  7.210e-003 	             	
       106.006	             	  5.090e-001 	
       106.048	  7.070e-003 	             	
       106.070	             	  5.090e-001 	
       106.112	  7.020e-003 	             	
       106.134	             	  5.090e-001 	
       106.176	  6.950e-003 	             	
       106.198	             	  5.090e-001 	
       106.240	  6.880e-003 	             	
       106.262	             	  5.090e-001 	
       106.304	  6.790e-003 	             	
       106.359	             	  5.090e-001 	
       106.369	  6.800e-003 	             	
       106.423	             	  5.090e-001 	
       106.433	  6.750e-003 	             	
       106.487	             	  5.090e-001 	
       106.497	  6.690e-003 	             	
       106.551	             	  5.090e-001 	
       106.561	  6.640e-003 	             	
       106.615	             	  5.090e-001 	
       106.657	  6.610e-003 	             	
       106.679	             	  5.090e-001 	
       106.721	  6.540e-003 	             	
       106.743	             	  5.090e-001 	
       106.785	  6.480e-003 	             	
       106.807	             	  5.090e-001 	
       106.849	  6.440e-003 	             	
       106.871	             	  5.090e-001 	
       106.913	  6.440e-003 	             	
       106.935	             	  5.090e-001 	
       106.977	  6.380e-003 	             	
       106.999	             	  5.090e-001 	
       107.041	  6.680e-003 	             	
       107.063	             	  5.080e-001 	
       107.105	  6.790e-003 	             	
       107.159	             	  5.080e-001 	
       107.168	  6.820e-003 	             	
       107.223	             	  5.080e-001 	
       107.233	  6.720e-003 	             	
       107.287	             	  5.080e-001 	
       107.296	  6.690e-003 	             	
       107.351	             	  5.090e-001 	
       107.360	  6.720e-003 	             	
       107.415	             	  5.090e-001 	
       107.456	  6.670e-003 	             	
       107.479	             	  5.090e-001 	
       107.520	  6.640e-003 	             	
       107.543	             	  5.090e-001 	
       107.584	  6.600e-003 	             	
       107.607	             	  5.090e-001 	
       107.648	  6.530e-003 	             	
       107.671	             	  5.090e-001 	
       107.712	  6.610e-003 	             	
       107.735	             	  5.080e-001 	
       107.776	  6.610e-003 	             	
       107.799	             	  5.090e-001 	
       107.840	  6.620e-003 	             	
       107.863	             	  5.090e-001 	
       107.904	  6.540e-003 	             	
       107.959	             	  5.080e-001 	
       107.968	  6.470e-003 	             	
       108.023	             	  5.090e-001 	
       108.032	  6.410e-003 	             	
       108.087	             	  5.090e-001 	
       108.096	  6.420e-003 	             	
       108.151	             	  5.080e-001 	
       108.160	  6.430e-003 	             	
       108.215	             	  5.080e-001 	
       108.257	  6.490e-003 	             	
       108.279	             	  5.080e-001 	
       108.320	  6.530e-003 	             	
       108.343	             	  5.080e-001 	
       108.384	  6.550e-003 	             	
       108.407	             	  5.080e-001 	
       108.448	  6.620e-003 	             	
       108.471	             	  5.080e-001 	
       108.512	  6.670e-003 	             	
       108.535	             	  5.080e-001 	
       108.576	  6.650e-003 	             	
       108.599	             	  5.080e-001 	
       108.640	  6.680e-003 	             	
       108.663	             	  5.080e-001 	
       108.704	  6.710e-003 	             	
       108.759	             	  5.090e-001 	
       108.768	  6.740e-003 	             	
       108.823	             	  5.090e-001 	
       108.832	  6.740e-003 	             	
       108.887	             	  5.080e-001 	
       108.896	  6.760e-003 	             	
       108.951	             	  5.080e-001 	
       108.960	  6.790e-003 	             	
       109.015	             	  5.080e-001 	
       109.056	  6.790e-003 	             	
       109.079	             	  5.080e-001 	
       109.120	  6.750e-003 	             	
       109.143	             	  5.080e-001 	
       109.184	  6.730e-003 	             	
       109.207	             	  5.080e-001 	
       109.248	  6.640e-003 	             	
       109.271	             	  5.080e-001 	
       109.312	  6.640e-003 	             	
       109.335	             	  5.080e-001 	
       109.376	  6.650e-003 	             	
       109.399	             	  5.080e-001 	
       109.440	  6.690e-003 	             	
       109.463	             	  5.080e-001 	
       109.504	  6.750e-003 	             	
       109.559	             	  5.090e-001 	
       109.568	  6.800e-003 	             	
       109.623	             	  5.090e-001 	
       109.632	  6.820e-003 	             	
       109.687	             	  5.090e-001 	
       109.696	  6.860e-003 	             	
       109.751	             	  5.090e-001 	
       109.760	  6.910e-003 	             	
       109.815	             	  5.090e-001 	
       109.824	  6.960e-003 	             	
       109.879	             	  5.090e-001 	
       109.920	  6.900e-003 	             	
       109.943	             	  5.090e-001 	
       109.984	  6.910e-003 	             	
       110.007	             	  5.080e-001 	
       110.048	  6.930e-003 	             	
       110.071	             	  5.080e-001 	
       110.112	  6.910e-003 	             	
       110.135	             	  5.080e-001 	
       110.176	  6.890e-003 	             	
       110.199	             	  5.080e-001 	
       110.240	  6.930e-003 	             	
       110.263	             	  5.080e-001 	
       110.304	  6.900e-003 	             	
       110.359	             	  5.080e-001 	
       110.368	  6.930e-003 	             	
       110.423	             	  5.080e-001 	
       110.432	  6.890e-003 	             	
       110.487	             	  5.080e-001 	
       110.496	  6.900e-003 	             	
       110.551	             	  5.090e-001 	
       110.560	  6.870e-003 	             	
       110.615	             	  5.080e-001 	
       110.624	  6.900e-003 	             	
       110.679	             	  5.080e-001 	
       110.720	  6.900e-003 	             	
       110.743	             	  5.080e-001 	
       110.785	  6.940e-003 	             	
       110.807	             	  5.080e-001 	
       110.848	  6.930e-003 	             	
       110.871	             	  5.080e-001 	
       110.912	  6.920e-003 	             	
       110.935	             	  5.080e-001 	
       110.976	  6.910e-003 	             	
       110.999	             	  5.090e-001 	
       111.040	  6.930e-003 	             	
       111.063	             	  5.090e-001 	
       111.104	  6.900e-003 	             	
       111.159	             	  5.090e-001 	
       111.168	  6.920e-003 	             	
       111.223	             	  5.090e-001 	
       111.232	  6.900e-003 	             	
       111.287	             	  5.090e-001 	
       111.296	  6.920e-003 	             	
       111.351	             	  5.090e-001 	
       111.360	  6.910e-003 	             	
       111.415	             	  5.090e-001 	
       111.424	  6.920e-003 	             	
       111.479	             	  5.090e-001 	
       111.520	  6.930e-003 	             	
       111.543	             	  5.080e-001 	
       111.584	  6.880e-003 	             	
       111.607	             	  5.080e-001 	
       111.648	  6.900e-003 	             	
       111.671	             	  5.080e-001 	
       111.712	  6.950e-003 	             	
       111.735	             	  5.080e-001 	
       111.776	  6.960e-003 	             	
       111.799	             	  5.080e-001 	
       111.840	  6.950e-003 	             	
       111.863	             	  5.080e-001 	
       111.904	  6.870e-003 	             	
       111.959	             	  5.080e-001 	
       111.968	  6.890e-003 	             	
       112.023	             	  5.080e-001 	
       112.032	  6.950e-003 	             	
       112.087	             	  5.080e-001 	
       112.096	  6.930e-003 	             	
       112.151	             	  5.080e-001 	
       112.160	  6.900e-003 	             	
       112.215	             	  5.080e-001 	
       112.224	  6.930e-003 	             	
       112.279	             	  5.080e-001 	
       112.320	  6.910e-003 	             	
       112.343	             	  5.080e-001 	
       112.384	  6.910e-003 	             	
       112.407	             	  5.080e-001 	
       112.448	  6.940e-003 	             	
       112.471	             	  5.080e-001 	
       112.512	  6.910e-003 	             	
       112.535	             	  5.080e-001 	
       112.576	  6.930e-003 	             	
       112.599	             	  5.080e-001 	
       112.640	  6.920e-003 	             	
       112.663	             	  5.080e-001 	
       112.704	  6.880e-003 	             	
       112.759	             	  5.080e-001 	
       112.768	  6.910e-003 	             	
       112.823	             	  5.090e-001 	
       112.832	  6.920e-003 	             	
       112.887	             	  5.090e-001 	
       112.896	  6.940e-003 	             	
       112.951	             	  5.090e-001 	
       112.960	  6.970e-003 	             	
       113.015	             	  5.090e-001 	
       113.024	  7.000e-003 	             	
       113.079	             	  5.080e-001 	
       113.120	  7.030e-003 	             	
       113.143	             	  5.080e-001 	
       113.184	  7.050e-003 	             	
       113.207	             	  5.080e-001 	
       113.248	  7.140e-003 	             	
       113.271	             	  5.080e-001 	
       113.312	  7.090e-003 	             	
       113.335	             	  5.080e-001 	
       113.376	  7.160e-003 	             	
       113.399	             	  5.080e-001 	
       113.440	  7.140e-003 	             	
       113.463	             	  5.080e-001 	
       113.504	  7.200e-003 	             	
       113.559	             	  5.080e-001 	
       113.568	  7.180e-003 	             	
       113.623	             	  5.080e-001 	
       113.632	  7.000e-003 	             	
       113.687	             	  5.080e-001 	
       113.696	  6.990e-003 	             	
       113.751	             	  5.080e-001 	
       113.760	  7.010e-003 	             	
       113.815	             	  5.080e-001 	
       113.824	  7.020e-003 	             	
       113.879	             	  5.080e-001 	
       113.920	  7.030e-003 	             	
       113.943	             	  5.080e-001 	
       113.984	  7.020e-003 	             	
       114.007	             	  5.080e-001 	
       114.048	  7.090e-003 	             	
       114.071	             	  5.080e-001 	
       114.112	  7.350e-003 	             	
       114.135	             	  5.080e-001 	
       114.176	  7.290e-003 	             	
       114.199	             	  5.090e-001 	
       114.240	  7.270e-003 	             	
       114.263	             	  5.090e-001 	
       114.304	  7.200e-003 	             	
       114.327	             	  5.090e-001 	
       114.368	  6.970e-003 	             	
       114.423	             	  5.090e-001 	
       114.432	  6.880e-003 	             	
       114.487	             	  5.090e-001 	
       114.496	  6.840e-003 	             	
       114.551	             	  5.090e-001 	
       114.560	  6.930e-003 	             	
       114.615	             	  5.080e-001 	
       114.624	  6.870e-003 	             	
       114.679	             	  5.080e-001 	
       114.720	  6.810e-003 	             	
       114.743	             	  5.080e-001 	
       114.784	  6.800e-003 	             	
       114.807	             	  5.080e-001 	
       114.848	  6.700e-003 	             	
       114.871	             	  5.080e-001 	
       114.912	  6.640e-003 	             	
       114.935	             	  5.080e-001 	
       114.976	  6.610e-003 	             	
       114.999	             	  5.080e-001 	
       115.040	  6.560e-003 	             	
       115.063	             	  5.080e-001 	
       115.104	  6.500e-003 	             	
       115.127	             	  5.080e-001 	
       115.168	  6.450e-003 	             	
       115.223	             	  5.080e-001 	
       115.232	  6.400e-003 	             	
       115.287	             	  5.080e-001 	
       115.296	  6.600e-003 	             	
       115.351	             	  5.080e-001 	
       115.360	  6.790e-003 	             	
       115.415	             	  5.080e-001 	
       115.424	  6.920e-003 	             	
       115.479	             	  5.080e-001 	
       115.520	  7.100e-003 	             	
       115.543	             	  5.080e-001 	
       115.584	  7.090e-003 	             	
       115.607	             	  5.080e-001 	
       115.648	  7.040e-003 	             	
       115.671	             	  5.080e-001 	
       115.712	  6.990e-003 	             	
       115.735	             	  5.080e-001 	
       115.776	  6.890e-003 	             	
       115.799	             	  5.080e-001 	
       115.840	  6.870e-003 	             	
       115.863	             	  5.080e-001 	
       115.904	  6.800e-003 	             	
       115.927	             	  5.080e-001 	
       115.968	  6.740e-003 	             	
       116.023	             	  5.080e-001 	
       116.032	  6.680e-003 	             	
       116.087	             	  5.080e-001 	
       116.096	  6.620e-003 	             	
       116.151	             	  5.080e-001 	
       116.160	  6.580e-003 	             	
       116.215	             	  5.080e-001 	
       116.224	  6.540e-003 	             	
       116.279	             	  5.080e-001 	
       116.320	  6.510e-003 	             	
       116.343	             	  5.080e-001 	
       116.384	  6.490e-003 	             	
       116.407	             	  5.080e-001 	
       116.448	  6.500e-003 	             	
       116.471	             	  5.080e-001 	
       116.512	  6.500e-003 	             	
       116.535	             	  5.080e-001 	
       116.576	  6.540e-003 	             	
       116.599	             	  5.080e-001 	
       116.640	  6.540e-003 	             	
       116.663	             	  5.080e-001 	
       116.704	  6.630e-003 	             	
       116.727	             	  5.080e-001 	
       116.768	  6.690e-003 	             	
       116.823	             	  5.080e-001 	
       116.832	  6.750e-003 	             	
       116.886	             	  5.080e-001 	
       116.896	  6.780e-003 	             	
       116.951	             	  5.080e-001 	
       116.960	  6.820e-003 	             	
       117.015	             	  5.080e-001 	
       117.024	  6.910e-003 	             	
       117.078	             	  5.080e-001 	
       117.120	  6.900e-003 	             	
       117.143	             	  5.080e-001 	
       117.184	  6.890e-003 	             	
       117.207	             	  5.080e-001 	
       117.248	  6.780e-003 	             	
       117.271	             	  5.080e-001 	
       117.312	  6.790e-003 	             	
       117.335	             	  5.080e-001 	
       117.376	  6.830e-003 	             	
       117.399	             	  5.080e-001 	
       117.440	  6.890e-003 	             	
       117.463	             	  5.080e-001 	
       117.504	  7.010e-003 	             	
       117.527	             	  5.080e-001 	
       117.568	  6.960e-003 	             	
       117.622	             	  5.080e-001 	
       117.632	  6.910e-003 	             	
       117.687	             	  5.080e-001 	
       117.696	  6.880e-003 	             	
       117.751	             	  5.080e-001 	
       117.760	  6.860e-003 	             	
       117.815	             	  5.080e-001 	
       117.824	  6.950e-003 	             	
       117.878	             	  5.090e-001 	
       117.920	  7.050e-003 	             	
       117.942	             	  5.080e-001 	
       117.984	  7.130e-003 	             	
       118.007	             	  5.080e-001 	
       118.048	  7.140e-003 	             	
       118.070	             	  5.080e-001 	
       118.112	  7.220e-003 	             	
       118.134	             	  5.080e-001 	
       118.176	  7.230e-003 	             	
       118.199	             	  5.080e-001 	
       118.240	  7.240e-003 	             	
       118.263	             	  5.080e-001 	
       118.304	  7.260e-003 	             	
       118.327	             	  5.090e-001 	
       118.368	  7.290e-003 	             	
       118.422	             	  5.090e-001 	
       118.432	  7.300e-003 	             	
       118.487	             	  5.090e-001 	
       118.496	  7.280e-003 	             	
       118.550	             	  5.090e-001 	
       118.560	  7.230e-003 	             	
       118.614	             	  5.090e-001 	
       118.624	  7.270e-003 	             	
       118.678	             	  5.080e-001 	
       118.720	  7.330e-003 	             	
       118.742	             	  5.080e-001 	
       118.784	  7.400e-003 	             	
       118.807	             	  5.080e-001 	
       118.848	  7.540e-003 	             	
       118.870	             	  5.090e-001 	
       118.912	  7.540e-003 	             	
       118.934	             	  5.090e-001 	
       118.976	  7.550e-003 	             	
       118.998	             	  5.090e-001 	
       119.040	  7.430e-003 	             	
       119.063	             	  5.090e-001 	
       119.104	  7.260e-003 	             	
       119.126	             	  5.090e-001 	
       119.168	  7.240e-003 	             	
       119.222	             	  5.090e-001 	
       119.232	  7.310e-003 	             	
       119.286	             	  5.090e-001 	
       119.296	  7.400e-003 	             	
       119.351	             	  5.090e-001 	
       119.360	  7.380e-003 	             	
       119.414	             	  5.090e-001 	
       119.424	  7.320e-003 	             	
       119.478	             	  5.090e-001 	
       119.520	  7.310e-003 	             	
       119.542	             	  5.080e-001 	
       119.584	  7.230e-003 	             	
       119.606	             	  5.090e-001 	
       119.648	  7.230e-003 	             	
       119.670	             	  5.090e-001 	
       119.712	  7.120e-003 	             	
       119.734	             	  5.090e-001 	
       119.776	  7.050e-003 	             	
       119.798	             	  5.090e-001 	
       119.840	  7.020e-003 	             	
       119.862	             	  5.090e-001 	
       119.904	  6.940e-003 	             	
       119.926	             	  5.090e-001 	
       119.968	  6.890e-003 	             	
       120.022	             	  5.090e-001 	
       120.032	  6.850e-003 	             	
       120.086	             	  5.080e-001 	
       120.096	  6.740e-003 	             	
       120.150	             	  5.080e-001 	
       120.160	  6.570e-003 	             	
       120.214	             	  5.080e-001 	
       120.224	  6.550e-003 	             	
       120.278	             	  5.080e-001 	
       120.320	  6.570e-003 	             	
       120.342	             	  5.080e-001 	
       120.384	  6.560e-003 	             	
       120.406	             	  5.080e-001 	
       120.448	  6.570e-003 	             	
       120.470	             	  5.090e-001 	
       120.512	  6.630e-003 	             	
       120.534	             	  5.090e-001 	
       120.576	  6.660e-003 	             	
       120.598	             	  5.090e-001 	
       120.640	  6.750e-003 	             	
       120.662	             	  5.090e-001 	
       120.704	  6.850e-003 	             	
       120.726	             	  5.090e-001 	
       120.768	  7.090e-003 	             	
       120.822	             	  5.090e-001 	
       120.832	  7.340e-003 	             	
       120.886	             	  5.090e-001 	
       120.896	  7.310e-003 	             	
       120.951	             	  5.090e-001 	
       120.960	  7.280e-003 	             	
       121.014	             	  5.090e-001 	
       121.024	  7.200e-003 	             	
       121.078	             	  5.090e-001 	
       121.120	  7.110e-003 	             	
       121.142	             	  5.090e-001 	
       121.184	  7.010e-003 	             	
       121.206	             	  5.090e-001 	
       121.248	  7.050e-003 	             	
       121.270	             	  5.090e-001 	
       121.312	  7.020e-003 	             	
       121.334	             	  5.090e-001 	
       121.376	  6.980e-003 	             	
       121.398	             	  5.080e-001 	
       121.440	  6.910e-003 	             	
       121.462	             	  5.080e-001 	
       121.504	  6.850e-003 	             	
       121.526	             	  5.080e-001 	
       121.568	  6.830e-003 	             	
       121.622	             	  5.080e-001 	
       121.632	  6.830e-003 	             	
       121.686	             	  5.090e-001 	
       121.696	  6.840e-003 	             	
       121.750	             	  5.090e-001 	
       121.760	  6.820e-003 	             	
       121.814	             	  5.090e-001 	
       121.824	  6.720e-003 	             	
       121.878	             	  5.090e-001 	
       121.920	  6.710e-003 	             	
       121.942	             	  5.090e-001 	
       121.984	  6.690e-003 	             	
       122.006	             	  5.090e-001 	
       122.048	  6.700e-003 	             	
       122.070	             	  5.080e-001 	
       122.112	  6.720e-003 	             	
       122.134	             	  5.090e-001 	
       122.176	  6.770e-003 	             	
       122.198	             	  5.090e-001 	
       122.240	  6.810e-003 	             	
       122.262	             	  5.090e-001 	
       122.304	  6.870e-003 	             	
       122.326	             	  5.090e-001 	
       122.368	  6.910e-003 	             	
       122.422	             	  5.090e-001 	
       122.432	  6.940e-003 	             	
       122.486	             	  5.090e-001 	
       122.496	  6.990e-003 	             	
       122.550	             	  5.080e-001 	
       122.560	  7.030e-003 	             	
       122.614	             	  5.080e-001 	
       122.624	  7.150e-003 	             	
       122.678	             	  5.080e-001 	
       122.688	  7.170e-003 	             	
       122.742	             	  5.080e-001 	
       122.784	  7.260e-003 	             	
       122.806	             	  5.090e-001 	
       122.848	  7.250e-003 	             	
       122.870	             	  5.090e-001 	
       122.912	  7.120e-003 	             	
       122.934	             	  5.080e-001 	
       122.976	  7.070e-003 	             	
       122.998	             	  5.090e-001 	
       123.040	  7.080e-003 	             	
       123.062	             	  5.080e-001 	
       123.104	  6.970e-003 	             	
       123.126	             	  5.090e-001 	
       123.168	  7.020e-003 	             	
       123.222	             	  5.090e-001 	
       123.232	  7.070e-003 	             	
       123.286	             	  5.080e-001 	
       123.296	  7.090e-003 	             	
       123.350	             	  5.080e-001 	
       123.360	  7.150e-003 	             	
       123.414	             	  5.080e-001 	
       123.424	  7.190e-003 	             	
       123.478	             	  5.090e-001 	
       123.488	  7.180e-003 	             	
       123.542	             	  5.090e-001 	
       123.584	  7.230e-003 	             	
       123.606	             	  5.090e-001 	
       123.648	  7.260e-003 	             	
       123.670	             	  5.090e-001 	
       123.712	  7.250e-003 	             	
       123.734	             	  5.090e-001 	
       123.777	  7.290e-003 	             	
       123.799	             	  5.080e-001 	
       123.841	  7.340e-003 	             	
       123.863	             	  5.080e-001 	
       123.905	  7.410e-003 	             	
       123.927	             	  5.080e-001 	
       123.969	  7.400e-003 	             	
       124.023	             	  5.080e-001 	
       124.033	  7.440e-003 	             	
       124.087	             	  5.080e-001 	
       124.097	  7.430e-003 	             	
       124.151	             	  5.080e-001 	
       124.161	  7.330e-003 	             	
       124.215	             	  5.080e-001 	
       124.225	  7.280e-003 	             	
       124.279	             	  5.080e-001 	
       124.288	  7.300e-003 	             	
       124.343	             	  5.080e-001 	
       124.385	  7.310e-003 	             	
       124.407	             	  5.080e-001 	
       124.449	  7.300e-003 	             	
       124.471	             	  5.080e-001 	
       124.513	  7.310e-003 	             	
       124.535	             	  5.080e-001 	
       124.577	  7.280e-003 	             	
       124.599	             	  5.090e-001 	
       124.640	  7.280e-003 	             	
       124.663	             	  5.090e-001 	
       124.704	  7.310e-003 	             	
       124.727	             	  5.090e-001 	
       124.768	  7.290e-003 	             	
       124.823	             	  5.080e-001 	
       124.832	  7.280e-003 	             	
       124.887	             	  5.080e-001 	
       124.896	  7.210e-003 	             	
       124.951	             	  5.080e-001 	
       124.960	  7.050e-003 	             	
       125.015	             	  5.080e-001 	
       125.024	  7.020e-003 	             	
       125.079	             	  5.080e-001 	
       125.088	  7.000e-003 	             	
       125.143	             	  5.080e-001 	
       125.184	  6.960e-003 	             	
       125.207	             	  5.080e-001 	
       125.248	  6.960e-003 	             	
       125.271	             	  5.080e-001 	
       125.312	  6.910e-003 	             	
       125.335	             	  5.080e-001 	
       125.376	  6.890e-003 	             	
       125.399	             	  5.080e-001 	
       125.440	  6.850e-003 	             	
       125.463	             	  5.090e-001 	
       125.504	  6.800e-003 	             	
       125.527	             	  5.090e-001 	
       125.568	  6.760e-003 	             	
       125.623	             	  5.090e-001 	
       125.632	  6.860e-003 	             	
       125.687	             	  5.090e-001 	
       125.696	  7.020e-003 	             	
       125.751	             	  5.090e-001 	
       125.760	  7.050e-003 	             	
       125.815	             	  5.090e-001 	
       125.824	  7.170e-003 	             	
       125.879	             	  5.080e-001 	
       125.888	  7.310e-003 	             	
       125.943	             	  5.080e-001 	
       125.984	  7.350e-003 	             	
       126.007	             	  5.080e-001 	
       126.048	  7.340e-003 	             	
       126.071	             	  5.080e-001 	
       126.112	  7.390e-003 	             	
       126.135	             	  5.080e-001 	
       126.176	  7.380e-003 	             	
       126.199	             	  5.080e-001 	
       126.240	  7.310e-003 	             	
       126.263	             	  5.080e-001 	
       126.304	  7.270e-003 	             	
       126.327	             	  5.080e-001 	
       126.368	  7.220e-003 	             	
       126.423	             	  5.080e-001 	
       126.432	  7.210e-003 	             	
       126.487	             	  5.080e-001 	
       126.496	  7.140e-003 	             	
       126.551	             	  5.080e-001 	
       126.560	  7.080e-003 	             	
       126.615	             	  5.080e-001 	
       126.624	  6.980e-003 	             	
       126.679	             	  5.080e-001 	
       126.688	  6.990e-003 	             	
       126.743	             	  5.080e-001 	
       126.784	  6.970e-003 	             	
       126.807	             	  5.080e-001 	
       126.848	  6.930e-003 	             	
       126.871	             	  5.080e-001 	
       126.912	  6.920e-003 	             	
       126.935	             	  5.070e-001 	
       126.976	  6.900e-003 	             	
       126.999	             	  5.070e-001 	
       127.040	  6.880e-003 	             	
       127.063	             	  5.080e-001 	
       127.104	  6.880e-003 	             	
       127.127	             	  5.080e-001 	
       127.168	  6.920e-003 	             	
       127.191	             	  5.080e-001 	
       127.232	  6.890e-003 	             	
       127.287	             	  5.080e-001 	
       127.296	  6.930e-003 	             	
       127.351	             	  5.080e-001 	
       127.360	  6.980e-003 	             	
       127.415	             	  5.080e-001 	
       127.424	  7.000e-003 	             	
       127.479	             	  5.080e-001 	
       127.488	  7.090e-003 	             	
       127.543	             	  5.080e-001 	
       127.584	  7.140e-003 	             	
       127.607	             	  5.080e-001 	
       127.648	  7.150e-003 	             	
       127.671	             	  5.080e-001 	
       127.712	  7.180e-003 	             	
       127.735	             	  5.080e-001 	
       127.776	  7.250e-003 	             	
       127.799	             	  5.080e-001 	
       127.840	  7.260e-003 	             	
       127.863	             	  5.080e-001 	
       127.904	  7.190e-003 	             	
       127.927	             	  5.080e-001 	
       127.968	  7.210e-003 	             	
       127.991	             	  5.080e-001 	
       128.032	  7.300e-003 	             	
       128.087	             	  5.080e-001 	
       128.096	  7.300e-003 	             	
       128.151	             	  5.080e-001 	
       128.160	  7.360e-003 	             	
       128.215	             	  5.080e-001 	
       128.224	  7.230e-003 	             	
       128.279	             	  5.080e-001 	
       128.288	  7.190e-003 	             	
       128.343	             	  5.080e-001 	
       128.384	  7.200e-003 	             	
       128.407	             	  5.080e-001 	
       128.448	  7.220e-003 	             	
       128.471	             	  5.080e-001 	
       128.512	  7.230e-003 	             	
       128.535	             	  5.080e-001 	
       128.576	  7.310e-003 	             	
       128.599	             	  5.080e-001 	
       128.640	  7.330e-003 	             	
       128.663	             	  5.080e-001 	
       128.704	  7.360e-003 	             	
       128.727	             	  5.080e-001 	
       128.768	  7.360e-003 	             	
       128.791	             	  5.080e-001 	
       128.832	  7.440e-003 	             	
       128.887	             	  5.080e-001 	
       128.896	  7.430e-003 	             	
       128.951	             	  5.080e-001 	
       128.960	  7.460e-003 	             	
       129.015	             	  5.080e-001 	
       129.025	  7.420e-003 	             	
       129.079	             	  5.080e-001 	
       129.088	  7.320e-003 	             	
       129.143	             	  5.080e-001 	
       129.184	  7.380e-003 	             	
       129.207	             	  5.080e-001 	
       129.248	  7.390e-003 	             	
       129.271	             	  5.080e-001 	
       129.312	  7.410e-003 	             	
       129.335	             	  5.080e-001 	
       129.376	  7.460e-003 	             	
       129.399	             	  5.080e-001 	
       129.440	  7.570e-003 	             	
       129.463	             	  5.080e-001 	
       129.504	  7.620e-003 	             	
       129.527	             	  5.080e-001 	
       129.568	  7.620e-003 	             	
       129.591	             	  5.080e-001 	
       129.632	  7.650e-003 	             	
       129.687	             	  5.080e-001 	
       129.696	  7.620e-003 	             	
       129.751	             	  5.080e-001 	
       129.760	  7.550e-003 	             	
       129.815	             	  5.070e-001 	
       129.824	  7.290e-003 	             	
       129.879	             	  5.070e-001 	
       129.888	  7.340e-003 	             	
       129.943	             	  5.070e-001 	
       129.984	  7.350e-003 	             	
       130.007	             	  5.070e-001 	
       130.048	  7.310e-003 	             	
       130.071	             	  5.080e-001 	
       130.112	  7.290e-003 	             	
       130.135	             	  5.080e-001 	
       130.176	  7.230e-003 	             	
       130.199	             	  5.080e-001 	
       130.240	  7.190e-003 	             	
       130.263	             	  5.080e-001 	
       130.304	  7.100e-003 	             	
       130.327	             	  5.080e-001 	
       130.368	  7.130e-003 	             	
       130.391	             	  5.080e-001 	
       130.432	  7.090e-003 	             	
       130.487	             	  5.080e-001 	
       130.496	  7.080e-003 	             	
       130.551	             	  5.080e-001 	
       130.560	  7.050e-003 	             	
       130.615	             	  5.080e-001 	
       130.624	  7.030e-003 	             	
       130.679	             	  5.080e-001 	
       130.688	  6.980e-003 	             	
       130.743	             	  5.080e-001 	
       130.784	  6.980e-003 	             	
       130.807	             	  5.080e-001 	
       130.848	  6.970e-003 	             	
       130.871	             	  5.070e-001 	
       130.912	  6.970e-003 	             	
       130.935	             	  5.080e-001 	
       130.976	  6.960e-003 	             	
       130.999	             	  5.080e-001 	
       131.040	  7.030e-003 	             	
       131.063	             	  5.080e-001 	
       131.104	  7.130e-003 	             	
       131.127	             	  5.080e-001 	
       131.168	  7.180e-003 	             	
       131.191	             	  5.080e-001 	
       131.232	  7.290e-003 	             	
       131.287	             	  5.080e-001 	
       131.296	  7.320e-003 	             	
       131.351	             	  5.080e-001 	
       131.360	  7.380e-003 	             	
       131.415	             	  5.080e-001 	
       131.424	  7.350e-003 	             	
       131.479	             	  5.080e-001 	
       131.488	  7.320e-003 	             	
       131.543	             	  5.080e-001 	
       131.584	  7.340e-003 	             	
       131.607	             	  5.080e-001 	
       131.648	  7.360e-003 	             	
       131.671	             	  5.080e-001 	
       131.712	  7.310e-003 	             	
       131.735	             	  5.080e-001 	
       131.776	  7.300e-003 	             	
       131.799	             	  5.080e-001 	
       131.840	  7.210e-003 	             	
       131.863	             	  5.080e-001 	
       131.904	  7.190e-003 	             	
       131.927	             	  5.080e-001 	
       131.968	  7.180e-003 	             	
       131.991	             	  5.080e-001 	
       132.032	  7.100e-003 	             	
       132.087	             	  5.080e-001 	
       132.096	  7.060e-003 	             	
       132.151	             	  5.080e-001 	
       132.160	  7.040e-003 	             	
       132.215	             	  5.080e-001 	
       132.224	  7.030e-003 	             	
       132.279	             	  5.080e-001 	
       132.288	  7.000e-003 	             	
       132.343	             	  5.080e-001 	
       132.384	  7.000e-003 	             	
       132.407	             	  5.080e-001 	
       132.448	  6.990e-003 	             	
       132.471	             	  5.080e-001 	
       132.512	  7.000e-003 	             	
       132.535	             	  5.080e-001 	
       132.576	  7.030e-003 	             	
       132.599	             	  5.080e-001 	
       132.640	  7.100e-003 	             	
       132.663	             	  5.080e-001 	
       132.704	  7.090e-003 	             	
       132.727	             	  5.080e-001 	
       132.768	  7.180e-003 	             	
       132.791	             	  5.080e-001 	
       132.832	  7.130e-003 	             	
       132.887	             	  5.080e-001 	
       132.896	  7.170e-003 	             	
       132.951	             	  5.080e-001 	
       132.960	  7.200e-003 	             	
       133.015	             	  5.080e-001 	
       133.024	  7.280e-003 	             	
       133.079	             	  5.080e-001 	
       133.088	  7.260e-003 	             	
       133.143	             	  5.080e-001 	
       133.184	  7.270e-003 	             	
       133.207	             	  5.080e-001 	
       133.248	  7.300e-003 	             	
       133.271	             	  5.080e-001 	
       133.312	  7.300e-003 	             	
       133.335	             	  5.080e-001 	
       133.376	  7.330e-003 	             	
       133.399	             	  5.080e-001 	
       133.440	  7.300e-003 	             	
       133.463	             	  5.080e-001 	
       133.504	  7.260e-003 	             	
       133.527	             	  5.080e-001 	
       133.568	  7.230e-003 	             	
       133.591	             	  5.080e-001 	
       133.632	  7.170e-003 	             	
       133.687	             	  5.080e-001 	
       133.696	  7.180e-003 	             	
       133.751	             	  5.080e-001 	
       133.760	  7.180e-003 	             	
       133.815	             	  5.080e-001 	
       133.824	  7.230e-003 	             	
       133.879	             	  5.080e-001 	
       133.888	  7.260e-003 	             	
       133.943	             	  5.080e-001 	
       133.984	  7.250e-003 	             	
       134.007	             	  5.080e-001 	
       134.048	  7.320e-003 	             	
       134.071	             	  5.080e-001 	
       134.112	  7.330e-003 	             	
       134.135	             	  5.080e-001 	
       134.176	  7.370e-003 	             	
       134.199	             	  5.080e-001 	
       134.240	  7.360e-003 	             	
       134.263	             	  5.080e-001 	
       134.304	  7.390e-003 	             	
       134.327	             	  5.080e-001 	
       134.368	  7.410e-003 	             	
       134.391	             	  5.080e-001 	
       134.432	  7.420e-003 	             	
       134.487	             	  5.090e-001 	
       134.496	  7.530e-003 	             	
       134.551	             	  5.090e-001 	
       134.560	  7.500e-003 	             	
       134.615	             	  5.090e-001 	
       134.624	  7.510e-003 	             	
       134.678	             	  5.090e-001 	
       134.688	  7.510e-003 	             	
       134.743	             	  5.090e-001 	
       134.784	  7.550e-003 	             	
       134.807	             	  5.080e-001 	
       134.848	  7.520e-003 	             	
       134.871	             	  5.080e-001 	
       134.912	  7.420e-003 	             	
       134.935	             	  5.080e-001 	
       134.976	  7.440e-003 	             	
       134.999	             	  5.080e-001 	
       135.040	  7.430e-003 	             	
       135.063	             	  5.080e-001 	
       135.104	  7.400e-003 	             	
       135.126	             	  5.080e-001 	
       135.168	  7.420e-003 	             	
       135.190	             	  5.080e-001 	
       135.232	  7.380e-003 	             	
       135.286	             	  5.080e-001 	
       135.296	  7.380e-003 	             	
       135.350	             	  5.080e-001 	
       135.360	  7.370e-003 	             	
       135.415	             	  5.080e-001 	
       135.424	  7.340e-003 	             	
       135.479	             	  5.080e-001 	
       135.488	  7.330e-003 	             	
       135.542	             	  5.080e-001 	
       135.584	  7.270e-003 	             	
       135.606	             	  5.080e-001 	
       135.648	  7.200e-003 	             	
       135.671	             	  5.080e-001 	
       135.712	  7.170e-003 	             	
       135.734	             	  5.080e-001 	
       135.776	  7.140e-003 	             	
       135.799	             	  5.080e-001 	
       135.840	  7.130e-003 	             	
       135.862	             	  5.080e-001 	
       135.904	  7.070e-003 	             	
       135.926	             	  5.090e-001 	
       135.968	  7.090e-003 	             	
       135.990	             	  5.090e-001 	
       136.032	  7.020e-003 	             	
       136.086	             	  5.080e-001 	
       136.096	  7.030e-003 	             	
       136.150	             	  5.080e-001 	
       136.160	  6.980e-003 	             	
       136.214	             	  5.080e-001 	
       136.224	  7.040e-003 	             	
       136.278	             	  5.090e-001 	
       136.288	  7.210e-003 	             	
       136.342	             	  5.080e-001 	
       136.352	  7.300e-003 	             	
       136.406	             	  5.090e-001 	
       136.448	  7.350e-003 	             	
       136.471	             	  5.090e-001 	
       136.512	  7.450e-003 	             	
       136.534	             	  5.090e-001 	
       136.576	  7.460e-003 	             	
       136.598	             	  5.090e-001 	
       136.640	  7.470e-003 	             	
       136.662	             	  5.090e-001 	
       136.704	  7.450e-003 	             	
       136.726	             	  5.080e-001 	
       136.768	  7.460e-003 	             	
       136.790	             	  5.080e-001 	
       136.832	  7.460e-003 	             	
       136.886	             	  5.080e-001 	
       136.896	  7.420e-003 	             	
       136.950	             	  5.080e-001 	
       136.960	  7.380e-003 	             	
       137.014	             	  5.080e-001 	
       137.024	  7.350e-003 	             	
       137.078	             	  5.080e-001 	
       137.088	  7.280e-003 	             	
       137.142	             	  5.080e-001 	
       137.152	  7.270e-003 	             	
       137.206	             	  5.090e-001 	
       137.248	  7.230e-003 	             	
       137.270	             	  5.080e-001 	
       137.312	  7.220e-003 	             	
       137.334	             	  5.080e-001 	
       137.376	  7.190e-003 	             	
       137.398	             	  5.090e-001 	
       137.440	  7.180e-003 	             	
       137.462	             	  5.080e-001 	
       137.504	  7.130e-003 	             	
       137.526	             	  5.080e-001 	
       137.568	  7.110e-003 	             	
       137.590	             	  5.080e-001 	
       137.632	  7.110e-003 	             	
       137.686	             	  5.080e-001 	
       137.696	  7.110e-003 	             	
       137.751	             	  5.080e-001 	
       137.760	  7.160e-003 	             	
       137.814	             	  5.080e-001 	
       137.824	  7.200e-003 	             	
       137.878	             	  5.080e-001 	
       137.888	  7.180e-003 	             	
       137.942	             	  5.080e-001 	
       137.952	  7.210e-003 	             	
       138.006	             	  5.080e-001 	
       138.048	  7.240e-003 	             	
       138.070	             	  5.080e-001 	
       138.112	  7.260e-003 	             	
       138.134	             	  5.080e-001 	
       138.176	  7.300e-003 	             	
       138.198	             	  5.080e-001 	
       138.240	  7.340e-003 	             	
       138.262	             	  5.090e-001 	
       138.304	  7.330e-003 	             	
       138.326	             	  5.090e-001 	
       138.368	  7.390e-003 	             	
       138.390	             	  5.090e-001 	
       138.432	  7.330e-003 	             	
       138.486	             	  5.090e-001 	
       138.496	  7.350e-003 	             	
       138.550	             	  5.090e-001 	
       138.560	  7.430e-003 	             	
       138.614	             	  5.090e-001 	
       138.624	  7.440e-003 	             	
       138.678	             	  5.090e-001 	
       138.688	  7.340e-003 	             	
       138.742	             	  5.090e-001 	
       138.752	  7.290e-003 	             	
       138.806	             	  5.090e-001 	
       138.848	  7.240e-003 	             	
       138.870	             	  5.080e-001 	
       138.912	  7.230e-003 	             	
       138.934	             	  5.080e-001 	
       138.976	  7.290e-003 	             	
       138.998	             	  5.080e-001 	
       139.040	  7.310e-003 	             	
       139.062	             	  5.080e-001 	
       139.104	  7.330e-003 	             	
       139.126	             	  5.080e-001 	
       139.168	  7.350e-003 	             	
       139.190	             	  5.080e-001 	
       139.232	  7.400e-003 	             	
       139.254	             	  5.080e-001 	
       139.296	  7.420e-003 	             	
       139.350	             	  5.080e-001 	
       139.360	  7.410e-003 	             	
       139.414	             	  5.080e-001 	
       139.424	  7.500e-003 	             	
       139.478	             	  5.080e-001 	
       139.488	  7.490e-003 	             	
       139.542	             	  5.080e-001 	
       139.552	  7.480e-003 	             	
       139.606	             	  5.080e-001 	
       139.648	  7.410e-003 	             	
       139.670	             	  5.090e-001 	
       139.712	  7.440e-003 	             	
       139.734	             	  5.090e-001 	
       139.776	  7.470e-003 	             	
       139.798	             	  5.090e-001 	
       139.840	  7.470e-003 	             	
       139.862	             	  5.080e-001 	
       139.904	  7.590e-003 	             	
       139.926	             	  5.080e-001 	
       139.968	  7.670e-003 	             	
       139.990	             	  5.080e-001 	
       140.032	  7.680e-003 	             	
       140.054	             	  5.080e-001 	
       140.096	  7.680e-003 	             	
       140.150	             	  5.080e-001 	
       140.160	  7.660e-003 	             	
       140.214	             	  5.080e-001 	
       140.224	  7.690e-003 	             	
       140.278	             	  5.090e-001 	
       140.288	  7.520e-003 	             	
       140.342	             	  5.080e-001 	
       140.352	  7.500e-003 	             	
       140.406	             	  5.090e-001 	
       140.448	  7.530e-003 	             	
       140.470	             	  5.090e-001 	
       140.512	  7.510e-003 	             	
       140.534	             	  5.080e-001 	
       140.576	  7.470e-003 	             	
       140.598	             	  5.080e-001 	
       140.640	  7.390e-003 	             	
       140.662	             	  5.080e-001 	
       140.704	  7.400e-003 	             	
       140.726	             	  5.080e-001 	
       140.768	  7.390e-003 	             	
       140.790	             	  5.080e-001 	
       140.832	  7.340e-003 	             	
       140.854	             	  5.080e-001 	
       140.896	  7.300e-003 	             	
       140.950	             	  5.080e-001 	
       140.960	  7.310e-003 	             	
       141.014	             	  5.080e-001 	
       141.024	  7.240e-003 	             	
       141.078	             	  5.080e-001 	
       141.088	  7.260e-003 	             	
       141.142	             	  5.080e-001 	
       141.152	  7.240e-003 	             	
       141.206	             	  5.080e-001 	
       141.248	  7.210e-003 	             	
       141.271	             	  5.080e-001 	
       141.313	  7.170e-003 	             	
       141.335	             	  5.080e-001 	
       141.377	  7.130e-003 	             	
       141.399	             	  5.080e-001 	
       141.441	  7.140e-003 	             	
       141.463	             	  5.080e-001 	
       141.505	  7.110e-003 	             	
       141.527	             	  5.080e-001 	
       141.569	  7.090e-003 	             	
       141.591	             	  5.080e-001 	
       141.633	  7.120e-003 	             	
       141.655	             	  5.080e-001 	
       141.697	  7.180e-003 	             	
       141.751	             	  5.080e-001 	
       141.760	  7.290e-003 	             	
       141.815	             	  5.080e-001 	
       141.825	  7.370e-003 	             	
       141.879	             	  5.080e-001 	
       141.889	  7.480e-003 	             	
       141.943	             	  5.080e-001 	
       141.953	  7.550e-003 	             	
       142.007	             	  5.080e-001 	
       142.049	  7.610e-003 	             	
       142.071	             	  5.080e-001 	
       142.113	  7.550e-003 	             	
       142.135	             	  5.080e-001 	
       142.176	  7.530e-003 	             	
       142.199	             	  5.080e-001 	
       142.241	  7.560e-003 	             	
       142.263	             	  5.080e-001 	
       142.304	  7.540e-003 	             	
       142.327	             	  5.080e-001 	
       142.368	  7.530e-003 	             	
       142.391	             	  5.080e-001 	
       142.432	  7.490e-003 	             	
       142.455	             	  5.080e-001 	
       142.496	  7.380e-003 	             	
       142.551	             	  5.080e-001 	
       142.560	  7.380e-003 	             	
       142.615	             	  5.080e-001 	
       142.625	  7.310e-003 	             	
       142.679	             	  5.080e-001 	
       142.688	  7.300e-003 	             	
       142.743	             	  5.080e-001 	
       142.752	  7.340e-003 	             	
       142.807	             	  5.080e-001 	
       142.848	  7.330e-003 	             	
       142.871	             	  5.080e-001 	
       142.912	  7.330e-003 	             	
       142.935	             	  5.080e-001 	
       142.976	  7.330e-003 	             	
       142.999	             	  5.080e-001 	
       143.040	  7.210e-003 	             	
       143.063	             	  5.080e-001 	
       143.104	  7.230e-003 	             	
       143.127	             	  5.080e-001 	
       143.169	  7.230e-003 	             	
       143.191	             	  5.080e-001 	
       143.232	  7.240e-003 	             	
       143.255	             	  5.090e-001 	
       143.296	  7.260e-003 	             	
       143.351	             	  5.090e-001 	
       143.360	  7.260e-003 	             	
       143.415	             	  5.090e-001 	
       143.424	  7.290e-003 	             	
       143.479	             	  5.080e-001 	
       143.489	  7.350e-003 	             	
       143.543	             	  5.080e-001 	
       143.552	  7.370e-003 	             	
       143.607	             	  5.080e-001 	
       143.648	  7.420e-003 	             	
       143.671	             	  5.080e-001 	
       143.712	  7.470e-003 	             	
       143.735	             	  5.080e-001 	
       143.776	  7.530e-003 	             	
       143.799	             	  5.080e-001 	
       143.840	  7.580e-003 	             	
       143.863	             	  5.080e-001 	
       143.905	  7.490e-003 	             	
       143.927	             	  5.080e-001 	
       143.968	  7.370e-003 	             	
       143.991	             	  5.080e-001 	
       144.032	  7.380e-003 	             	
       144.055	             	  5.080e-001 	
       144.096	  7.310e-003 	             	
       144.151	             	  5.080e-001 	
       144.160	  7.300e-003 	             	
       144.215	             	  5.080e-001 	
       144.224	  7.330e-003 	             	
       144.279	             	  5.080e-001 	
       144.288	  7.330e-003 	             	
       144.343	             	  5.090e-001 	
       144.352	  7.360e-003 	             	
       144.407	             	  5.080e-001 	
       144.448	  7.360e-003 	             	
       144.471	             	  5.080e-001 	
       144.512	  7.440e-003 	             	
       144.535	             	  5.090e-001 	
       144.576	  7.460e-003 	             	
       144.599	             	  5.090e-001 	
       144.640	  7.510e-003 	             	
       144.663	             	  5.090e-001 	
       144.704	  7.520e-003 	             	
       144.727	             	  5.090e-001 	
       144.768	  7.560e-003 	             	
       144.791	             	  5.090e-001 	
       144.832	  7.550e-003 	             	
       144.855	             	  5.090e-001 	
       144.896	  7.590e-003 	             	
       144.951	             	  5.090e-001 	
       144.960	  7.650e-003 	             	
       145.015	             	  5.090e-001 	
       145.024	  7.700e-003 	             	
       145.079	             	  5.080e-001 	
       145.088	  7.700e-003 	             	
       145.143	             	  5.090e-001 	
       145.152	  7.730e-003 	             	
       145.207	             	  5.080e-001 	
       145.248	  7.700e-003 	             	
       145.271	             	  5.080e-001 	
       145.312	  7.720e-003 	             	
       145.335	             	  5.080e-001 	
       145.376	  7.720e-003 	             	
       145.399	             	  5.090e-001 	
       145.440	  7.670e-003 	             	
       145.463	             	  5.090e-001 	
       145.504	  7.730e-003 	             	
       145.527	             	  5.090e-001 	
       145.568	  7.740e-003 	             	
       145.591	             	  5.090e-001 	
       145.632	  7.710e-003 	             	
       145.655	             	  5.090e-001 	
       145.696	  7.660e-003 	             	
       145.751	             	  5.090e-001 	
       145.760	  7.510e-003 	             	
       145.815	             	  5.090e-001 	
       145.824	  7.520e-003 	             	
       145.879	             	  5.090e-001 	
       145.888	  7.510e-003 	             	
       145.943	             	  5.090e-001 	
       145.952	  7.540e-003 	             	
       146.007	             	  5.090e-001 	
       146.048	  7.540e-003 	             	
       146.071	             	  5.090e-001 	
       146.112	  7.460e-003 	             	
       146.135	             	  5.090e-001 	
       146.176	  7.490e-003 	             	
       146.199	             	  5.090e-001 	
       146.240	  7.430e-003 	             	
       146.263	             	  5.090e-001 	
       146.304	  7.410e-003 	             	
       146.327	             	  5.090e-001 	
       146.368	  7.410e-003 	             	
       146.391	             	  5.090e-001 	
       146.432	  7.350e-003 	             	
       146.455	             	  5.080e-001 	
